"sj" "cb" "blockNumber" "blockType" "trialNum" "target" "targetImage" "distractor" "distractorImage" "posture" "setSize" "rt" "resp" "cresp" "ac"
1 1 2 "experimental" 1 "h" "h.bmp" "e" "e.bmp" "SITTING" 4 682 "h" "h" 1
1 1 2 "experimental" 2 "h" "h.bmp" "e" "e.bmp" "SITTING" 8 957 "h" "h" 1
1 1 2 "experimental" 3 "s" "s.bmp" "e" "e.bmp" "SITTING" 8 748 "s" "s" 1
1 1 2 "experimental" 4 "s" "s.bmp" "u" "u.bmp" "SITTING" 4 922 "s" "s" 1
1 1 2 "experimental" 5 "s" "s.bmp" "u" "u.bmp" "SITTING" 8 794 "s" "s" 1
1 1 2 "experimental" 6 "h" "h.bmp" "u" "u.bmp" "SITTING" 8 639 "h" "h" 1
1 1 2 "experimental" 7 "s" "s.bmp" "e" "e.bmp" "SITTING" 4 636 "s" "s" 1
1 1 2 "experimental" 8 "h" "h.bmp" "u" "u.bmp" "SITTING" 4 611 "h" "h" 1
1 1 2 "experimental" 9 "h" "h.bmp" "u" "u.bmp" "SITTING" 8 1156 "h" "h" 1
1 1 2 "experimental" 10 "h" "h.bmp" "e" "e.bmp" "SITTING" 8 816 "h" "h" 1
1 1 2 "experimental" 11 "h" "h.bmp" "e" "e.bmp" "SITTING" 4 663 "h" "h" 1
1 1 2 "experimental" 12 "s" "s.bmp" "u" "u.bmp" "SITTING" 4 677 "s" "s" 1
1 1 2 "experimental" 13 "s" "s.bmp" "e" "e.bmp" "SITTING" 4 639 "s" "s" 1
1 1 2 "experimental" 14 "h" "h.bmp" "u" "u.bmp" "SITTING" 4 697 "h" "h" 1
1 1 2 "experimental" 15 "s" "s.bmp" "e" "e.bmp" "SITTING" 8 794 "s" "s" 1
1 1 2 "experimental" 16 "s" "s.bmp" "u" "u.bmp" "SITTING" 8 959 "s" "s" 1
1 1 2 "experimental" 17 "h" "h.bmp" "e" "e.bmp" "SITTING" 8 827 "h" "h" 1
1 1 2 "experimental" 18 "h" "h.bmp" "u" "u.bmp" "SITTING" 4 757 "h" "h" 1
1 1 2 "experimental" 19 "h" "h.bmp" "u" "u.bmp" "SITTING" 8 748 "h" "h" 1
1 1 2 "experimental" 20 "s" "s.bmp" "e" "e.bmp" "SITTING" 8 940 "s" "s" 1
1 1 2 "experimental" 21 "s" "s.bmp" "e" "e.bmp" "SITTING" 4 888 "s" "s" 1
1 1 2 "experimental" 22 "h" "h.bmp" "e" "e.bmp" "SITTING" 4 683 "h" "h" 1
1 1 2 "experimental" 23 "s" "s.bmp" "u" "u.bmp" "SITTING" 8 670 "s" "s" 1
1 1 2 "experimental" 24 "s" "s.bmp" "u" "u.bmp" "SITTING" 4 656 "s" "s" 1
1 1 2 "experimental" 25 "h" "h.bmp" "u" "u.bmp" "SITTING" 4 888 "h" "h" 1
1 1 2 "experimental" 26 "s" "s.bmp" "e" "e.bmp" "SITTING" 8 834 "s" "s" 1
1 1 2 "experimental" 27 "s" "s.bmp" "e" "e.bmp" "SITTING" 4 877 "s" "s" 1
1 1 2 "experimental" 28 "h" "h.bmp" "e" "e.bmp" "SITTING" 8 920 "h" "h" 1
1 1 2 "experimental" 29 "h" "h.bmp" "u" "u.bmp" "SITTING" 8 848 "h" "h" 1
1 1 2 "experimental" 30 "h" "h.bmp" "e" "e.bmp" "SITTING" 4 709 "h" "h" 1
1 1 2 "experimental" 31 "s" "s.bmp" "u" "u.bmp" "SITTING" 8 689 "s" "s" 1
1 1 2 "experimental" 32 "s" "s.bmp" "u" "u.bmp" "SITTING" 4 846 "s" "s" 1
1 1 2 "experimental" 33 "s" "s.bmp" "e" "e.bmp" "SITTING" 8 979 "s" "s" 1
1 1 2 "experimental" 34 "s" "s.bmp" "u" "u.bmp" "SITTING" 4 723 "s" "s" 1
1 1 2 "experimental" 35 "h" "h.bmp" "e" "e.bmp" "SITTING" 4 803 "h" "h" 1
1 1 2 "experimental" 36 "h" "h.bmp" "e" "e.bmp" "SITTING" 8 731 "h" "h" 1
1 1 2 "experimental" 37 "h" "h.bmp" "u" "u.bmp" "SITTING" 4 670 "h" "h" 1
1 1 2 "experimental" 38 "s" "s.bmp" "e" "e.bmp" "SITTING" 4 697 "s" "s" 1
1 1 2 "experimental" 39 "h" "h.bmp" "u" "u.bmp" "SITTING" 8 910 "h" "h" 1
1 1 2 "experimental" 40 "s" "s.bmp" "u" "u.bmp" "SITTING" 8 749 "s" "s" 1
1 1 2 "experimental" 41 "h" "h.bmp" "u" "u.bmp" "SITTING" 8 691 "h" "h" 1
1 1 2 "experimental" 42 "h" "h.bmp" "e" "e.bmp" "SITTING" 8 808 "h" "h" 1
1 1 2 "experimental" 43 "s" "s.bmp" "u" "u.bmp" "SITTING" 4 806 "s" "s" 1
1 1 2 "experimental" 44 "s" "s.bmp" "e" "e.bmp" "SITTING" 8 709 "s" "s" 1
1 1 2 "experimental" 45 "s" "s.bmp" "u" "u.bmp" "SITTING" 8 772 "s" "s" 1
1 1 2 "experimental" 46 "h" "h.bmp" "u" "u.bmp" "SITTING" 4 680 "h" "h" 1
1 1 2 "experimental" 47 "s" "s.bmp" "e" "e.bmp" "SITTING" 4 593 "s" "s" 1
1 1 2 "experimental" 48 "h" "h.bmp" "e" "e.bmp" "SITTING" 4 730 "h" "h" 1
1 1 2 "experimental" 49 "h" "h.bmp" "u" "u.bmp" "SITTING" 8 797 "h" "h" 1
1 1 2 "experimental" 50 "h" "h.bmp" "e" "e.bmp" "SITTING" 4 683 "h" "h" 1
1 1 2 "experimental" 51 "h" "h.bmp" "e" "e.bmp" "SITTING" 8 647 "h" "h" 1
1 1 2 "experimental" 52 "h" "h.bmp" "u" "u.bmp" "SITTING" 4 677 "h" "h" 1
1 1 2 "experimental" 53 "s" "s.bmp" "e" "e.bmp" "SITTING" 8 957 "s" "s" 1
1 1 2 "experimental" 54 "s" "s.bmp" "u" "u.bmp" "SITTING" 4 658 "s" "s" 1
1 1 2 "experimental" 55 "s" "s.bmp" "e" "e.bmp" "SITTING" 4 611 "s" "s" 1
1 1 2 "experimental" 56 "s" "s.bmp" "u" "u.bmp" "SITTING" 8 604 "s" "s" 1
1 1 2 "experimental" 57 "h" "h.bmp" "e" "e.bmp" "SITTING" 4 754 "h" "h" 1
1 1 2 "experimental" 58 "s" "s.bmp" "e" "e.bmp" "SITTING" 8 891 "s" "s" 1
1 1 2 "experimental" 59 "s" "s.bmp" "e" "e.bmp" "SITTING" 4 630 "s" "s" 1
1 1 2 "experimental" 60 "h" "h.bmp" "u" "u.bmp" "SITTING" 8 826 "h" "h" 1
1 1 2 "experimental" 61 "s" "s.bmp" "u" "u.bmp" "SITTING" 8 788 "s" "s" 1
1 1 2 "experimental" 62 "h" "h.bmp" "e" "e.bmp" "SITTING" 8 736 "h" "h" 1
1 1 2 "experimental" 63 "h" "h.bmp" "u" "u.bmp" "SITTING" 4 684 "h" "h" 1
1 1 2 "experimental" 64 "s" "s.bmp" "u" "u.bmp" "SITTING" 4 576 "s" "s" 1
1 1 2 "experimental" 65 "s" "s.bmp" "e" "e.bmp" "SITTING" 8 676 "s" "s" 1
1 1 2 "experimental" 66 "s" "s.bmp" "e" "e.bmp" "SITTING" 4 670 "s" "s" 1
1 1 2 "experimental" 67 "s" "s.bmp" "u" "u.bmp" "SITTING" 8 512 "s" "s" 1
1 1 2 "experimental" 68 "h" "h.bmp" "e" "e.bmp" "SITTING" 8 917 "h" "h" 1
1 1 2 "experimental" 69 "s" "s.bmp" "u" "u.bmp" "SITTING" 4 577 "s" "s" 1
1 1 2 "experimental" 70 "h" "h.bmp" "u" "u.bmp" "SITTING" 4 657 "h" "h" 1
1 1 2 "experimental" 71 "h" "h.bmp" "u" "u.bmp" "SITTING" 8 754 "h" "h" 1
1 1 2 "experimental" 72 "h" "h.bmp" "e" "e.bmp" "SITTING" 4 730 "h" "h" 1
1 1 2 "experimental" 73 "h" "h.bmp" "u" "u.bmp" "SITTING" 8 621 "h" "h" 1
1 1 2 "experimental" 74 "h" "h.bmp" "e" "e.bmp" "SITTING" 4 655 "h" "h" 1
1 1 2 "experimental" 75 "s" "s.bmp" "e" "e.bmp" "SITTING" 4 665 "s" "s" 1
1 1 2 "experimental" 76 "h" "h.bmp" "u" "u.bmp" "SITTING" 4 537 "h" "h" 1
1 1 2 "experimental" 77 "s" "s.bmp" "u" "u.bmp" "SITTING" 8 712 "s" "s" 1
1 1 2 "experimental" 78 "s" "s.bmp" "e" "e.bmp" "SITTING" 8 592 "s" "s" 1
1 1 2 "experimental" 79 "s" "s.bmp" "u" "u.bmp" "SITTING" 4 574 "s" "s" 1
1 1 2 "experimental" 80 "h" "h.bmp" "e" "e.bmp" "SITTING" 8 762 "h" "h" 1
1 1 2 "experimental" 81 "h" "h.bmp" "u" "u.bmp" "SITTING" 8 882 "h" "h" 1
1 1 2 "experimental" 82 "s" "s.bmp" "e" "e.bmp" "SITTING" 4 628 "s" "s" 1
1 1 2 "experimental" 83 "s" "s.bmp" "e" "e.bmp" "SITTING" 8 671 "s" "s" 1
1 1 2 "experimental" 84 "s" "s.bmp" "u" "u.bmp" "SITTING" 8 913 "s" "s" 1
1 1 2 "experimental" 85 "h" "h.bmp" "e" "e.bmp" "SITTING" 4 770 "h" "h" 1
1 1 2 "experimental" 86 "s" "s.bmp" "u" "u.bmp" "SITTING" 4 1145 "s" "s" 1
1 1 2 "experimental" 87 "h" "h.bmp" "e" "e.bmp" "SITTING" 8 686 "h" "h" 1
1 1 2 "experimental" 88 "h" "h.bmp" "u" "u.bmp" "SITTING" 4 786 "h" "h" 1
1 1 2 "experimental" 89 "s" "s.bmp" "u" "u.bmp" "SITTING" 4 755 "s" "s" 1
1 1 2 "experimental" 90 "s" "s.bmp" "u" "u.bmp" "SITTING" 8 1250 "s" "s" 1
1 1 2 "experimental" 91 "h" "h.bmp" "u" "u.bmp" "SITTING" 8 776 "h" "h" 1
1 1 2 "experimental" 92 "s" "s.bmp" "e" "e.bmp" "SITTING" 8 590 "s" "s" 1
1 1 2 "experimental" 93 "s" "s.bmp" "e" "e.bmp" "SITTING" 4 772 "s" "s" 1
1 1 2 "experimental" 94 "h" "h.bmp" "e" "e.bmp" "SITTING" 4 715 "h" "h" 1
1 1 2 "experimental" 95 "h" "h.bmp" "u" "u.bmp" "SITTING" 4 644 "h" "h" 1
1 1 2 "experimental" 96 "h" "h.bmp" "e" "e.bmp" "SITTING" 8 779 "h" "h" 1
1 1 2 "experimental" 97 "s" "s.bmp" "u" "u.bmp" "SITTING" 8 542 "s" "s" 1
1 1 2 "experimental" 98 "s" "s.bmp" "e" "e.bmp" "SITTING" 8 629 "s" "s" 1
1 1 2 "experimental" 99 "h" "h.bmp" "e" "e.bmp" "SITTING" 4 784 "h" "h" 1
1 1 2 "experimental" 100 "h" "h.bmp" "e" "e.bmp" "SITTING" 8 563 "h" "h" 1
1 1 2 "experimental" 101 "h" "h.bmp" "u" "u.bmp" "SITTING" 4 582 "h" "h" 1
1 1 2 "experimental" 102 "h" "h.bmp" "u" "u.bmp" "SITTING" 8 691 "h" "h" 1
1 1 2 "experimental" 103 "s" "s.bmp" "u" "u.bmp" "SITTING" 4 520 "s" "s" 1
1 1 2 "experimental" 104 "s" "s.bmp" "e" "e.bmp" "SITTING" 4 739 "s" "s" 1
1 1 2 "experimental" 105 "h" "h.bmp" "u" "u.bmp" "SITTING" 4 562 "h" "h" 1
1 1 2 "experimental" 106 "h" "h.bmp" "u" "u.bmp" "SITTING" 8 572 "h" "h" 1
1 1 2 "experimental" 107 "h" "h.bmp" "e" "e.bmp" "SITTING" 4 663 "h" "h" 1
1 1 2 "experimental" 108 "s" "s.bmp" "u" "u.bmp" "SITTING" 4 596 "s" "s" 1
1 1 2 "experimental" 109 "s" "s.bmp" "e" "e.bmp" "SITTING" 4 587 "s" "s" 1
1 1 2 "experimental" 110 "h" "h.bmp" "e" "e.bmp" "SITTING" 8 716 "h" "h" 1
1 1 2 "experimental" 111 "s" "s.bmp" "u" "u.bmp" "SITTING" 8 609 "s" "s" 1
1 1 2 "experimental" 112 "s" "s.bmp" "e" "e.bmp" "SITTING" 8 562 "s" "s" 1
1 1 2 "experimental" 113 "h" "h.bmp" "u" "u.bmp" "SITTING" 4 633 "h" "h" 1
1 1 2 "experimental" 114 "s" "s.bmp" "e" "e.bmp" "SITTING" 8 680 "s" "s" 1
1 1 2 "experimental" 115 "h" "h.bmp" "e" "e.bmp" "SITTING" 4 570 "h" "h" 1
1 1 2 "experimental" 116 "s" "s.bmp" "e" "e.bmp" "SITTING" 4 518 "s" "s" 1
1 1 2 "experimental" 117 "h" "h.bmp" "u" "u.bmp" "SITTING" 8 456 "h" "h" 1
1 1 2 "experimental" 118 "s" "s.bmp" "u" "u.bmp" "SITTING" 4 644 "s" "s" 1
1 1 2 "experimental" 119 "h" "h.bmp" "e" "e.bmp" "SITTING" 8 754 "h" "h" 1
1 1 2 "experimental" 120 "s" "s.bmp" "u" "u.bmp" "SITTING" 8 561 "s" "s" 1
1 1 2 "experimental" 121 "s" "s.bmp" "u" "u.bmp" "SITTING" 4 658 "s" "s" 1
1 1 2 "experimental" 122 "h" "h.bmp" "u" "u.bmp" "SITTING" 8 540 "h" "h" 1
1 1 2 "experimental" 123 "h" "h.bmp" "e" "e.bmp" "SITTING" 8 612 "h" "h" 1
1 1 2 "experimental" 124 "h" "h.bmp" "u" "u.bmp" "SITTING" 4 549 "h" "h" 1
1 1 2 "experimental" 125 "s" "s.bmp" "e" "e.bmp" "SITTING" 8 529 "s" "s" 1
1 1 2 "experimental" 126 "h" "h.bmp" "e" "e.bmp" "SITTING" 4 522 "h" "h" 1
1 1 2 "experimental" 127 "s" "s.bmp" "e" "e.bmp" "SITTING" 4 553 "s" "s" 1
1 1 2 "experimental" 128 "s" "s.bmp" "u" "u.bmp" "SITTING" 8 546 "s" "s" 1
1 1 3 "experimental" 1 "h" "h.bmp" "e" "e.bmp" "STANDING" 4 761 "h" "h" 1
1 1 3 "experimental" 2 "h" "h.bmp" "u" "u.bmp" "STANDING" 4 497 "h" "h" 1
1 1 3 "experimental" 3 "s" "s.bmp" "e" "e.bmp" "STANDING" 8 524 "s" "s" 1
1 1 3 "experimental" 4 "s" "s.bmp" "u" "u.bmp" "STANDING" 8 617 "s" "s" 1
1 1 3 "experimental" 5 "s" "s.bmp" "e" "e.bmp" "STANDING" 4 460 "s" "s" 1
1 1 3 "experimental" 6 "s" "s.bmp" "u" "u.bmp" "STANDING" 4 501 "s" "s" 1
1 1 3 "experimental" 7 "h" "h.bmp" "u" "u.bmp" "STANDING" 8 436 "h" "h" 1
1 1 3 "experimental" 8 "h" "h.bmp" "e" "e.bmp" "STANDING" 8 587 "h" "h" 1
1 1 3 "experimental" 9 "s" "s.bmp" "e" "e.bmp" "STANDING" 4 770 "s" "s" 1
1 1 3 "experimental" 10 "s" "s.bmp" "e" "e.bmp" "STANDING" 8 651 "s" "s" 1
1 1 3 "experimental" 11 "s" "s.bmp" "u" "u.bmp" "STANDING" 8 571 "s" "s" 1
1 1 3 "experimental" 12 "h" "h.bmp" "u" "u.bmp" "STANDING" 4 519 "h" "h" 1
1 1 3 "experimental" 13 "s" "s.bmp" "u" "u.bmp" "STANDING" 4 625 "s" "s" 1
1 1 3 "experimental" 14 "h" "h.bmp" "e" "e.bmp" "STANDING" 4 494 "h" "h" 1
1 1 3 "experimental" 15 "h" "h.bmp" "u" "u.bmp" "STANDING" 8 741 "h" "h" 1
1 1 3 "experimental" 16 "h" "h.bmp" "e" "e.bmp" "STANDING" 8 707 "h" "h" 1
1 1 3 "experimental" 17 "s" "s.bmp" "u" "u.bmp" "STANDING" 4 832 "s" "s" 1
1 1 3 "experimental" 18 "h" "h.bmp" "u" "u.bmp" "STANDING" 8 695 "h" "h" 1
1 1 3 "experimental" 19 "s" "s.bmp" "u" "u.bmp" "STANDING" 8 545 "s" "s" 1
1 1 3 "experimental" 20 "h" "h.bmp" "u" "u.bmp" "STANDING" 4 531 "h" "h" 1
1 1 3 "experimental" 21 "h" "h.bmp" "e" "e.bmp" "STANDING" 4 578 "h" "h" 1
1 1 3 "experimental" 22 "s" "s.bmp" "e" "e.bmp" "STANDING" 8 577 "s" "s" 1
1 1 3 "experimental" 23 "h" "h.bmp" "e" "e.bmp" "STANDING" 8 706 "h" "h" 1
1 1 3 "experimental" 24 "s" "s.bmp" "e" "e.bmp" "STANDING" 4 492 "s" "s" 1
1 1 3 "experimental" 25 "s" "s.bmp" "e" "e.bmp" "STANDING" 8 555 "s" "s" 1
1 1 3 "experimental" 26 "s" "s.bmp" "e" "e.bmp" "STANDING" 4 662 "s" "s" 1
1 1 3 "experimental" 27 "h" "h.bmp" "e" "e.bmp" "STANDING" 4 629 "h" "h" 1
1 1 3 "experimental" 28 "h" "h.bmp" "u" "u.bmp" "STANDING" 8 810 "h" "h" 1
1 1 3 "experimental" 29 "h" "h.bmp" "u" "u.bmp" "STANDING" 4 593 "h" "h" 1
1 1 3 "experimental" 30 "s" "s.bmp" "u" "u.bmp" "STANDING" 4 503 "s" "s" 1
1 1 3 "experimental" 31 "h" "h.bmp" "e" "e.bmp" "STANDING" 8 458 "h" "h" 1
1 1 3 "experimental" 32 "s" "s.bmp" "u" "u.bmp" "STANDING" 8 611 "s" "s" 1
1 1 3 "experimental" 33 "h" "h.bmp" "u" "u.bmp" "STANDING" 8 590 "h" "h" 1
1 1 3 "experimental" 34 "s" "s.bmp" "u" "u.bmp" "STANDING" 4 602 "s" "s" 1
1 1 3 "experimental" 35 "h" "h.bmp" "u" "u.bmp" "STANDING" 4 636 "h" "h" 1
1 1 3 "experimental" 36 "s" "s.bmp" "u" "u.bmp" "STANDING" 8 831 "s" "s" 1
1 1 3 "experimental" 37 "h" "h.bmp" "e" "e.bmp" "STANDING" 8 541 "h" "h" 1
1 1 3 "experimental" 38 "s" "s.bmp" "e" "e.bmp" "STANDING" 4 544 "s" "s" 1
1 1 3 "experimental" 39 "h" "h.bmp" "e" "e.bmp" "STANDING" 4 1139 "h" "h" 1
1 1 3 "experimental" 40 "s" "s.bmp" "e" "e.bmp" "STANDING" 8 929 "s" "s" 1
1 1 3 "experimental" 41 "h" "h.bmp" "e" "e.bmp" "STANDING" 8 598 "h" "h" 1
1 1 3 "experimental" 42 "s" "s.bmp" "e" "e.bmp" "STANDING" 4 480 "s" "s" 1
1 1 3 "experimental" 43 "h" "h.bmp" "u" "u.bmp" "STANDING" 8 563 "h" "h" 1
1 1 3 "experimental" 44 "s" "s.bmp" "u" "u.bmp" "STANDING" 8 479 "s" "s" 1
1 1 3 "experimental" 45 "h" "h.bmp" "u" "u.bmp" "STANDING" 4 491 "h" "h" 1
1 1 3 "experimental" 46 "s" "s.bmp" "u" "u.bmp" "STANDING" 4 587 "s" "s" 1
1 1 3 "experimental" 47 "s" "s.bmp" "e" "e.bmp" "STANDING" 8 529 "s" "s" 1
1 1 3 "experimental" 48 "h" "h.bmp" "e" "e.bmp" "STANDING" 4 574 "h" "h" 1
1 1 3 "experimental" 49 "s" "s.bmp" "u" "u.bmp" "STANDING" 8 521 "s" "s" 1
1 1 3 "experimental" 50 "h" "h.bmp" "e" "e.bmp" "STANDING" 4 558 "h" "h" 1
1 1 3 "experimental" 51 "h" "h.bmp" "u" "u.bmp" "STANDING" 8 855 "h" "h" 1
1 1 3 "experimental" 52 "h" "h.bmp" "u" "u.bmp" "STANDING" 4 692 "h" "h" 1
1 1 3 "experimental" 53 "s" "s.bmp" "e" "e.bmp" "STANDING" 8 489 "s" "s" 1
1 1 3 "experimental" 54 "s" "s.bmp" "u" "u.bmp" "STANDING" 4 599 "s" "s" 1
1 1 3 "experimental" 55 "s" "s.bmp" "e" "e.bmp" "STANDING" 4 582 "s" "s" 1
1 1 3 "experimental" 56 "h" "h.bmp" "e" "e.bmp" "STANDING" 8 646 "h" "h" 1
1 1 3 "experimental" 57 "s" "s.bmp" "u" "u.bmp" "STANDING" 4 498 "s" "s" 1
1 1 3 "experimental" 58 "s" "s.bmp" "e" "e.bmp" "STANDING" 8 626 "s" "s" 1
1 1 3 "experimental" 59 "s" "s.bmp" "e" "e.bmp" "STANDING" 4 533 "s" "s" 1
1 1 3 "experimental" 60 "s" "s.bmp" "u" "u.bmp" "STANDING" 8 555 "s" "s" 1
1 1 3 "experimental" 61 "h" "h.bmp" "u" "u.bmp" "STANDING" 4 680 "h" "h" 1
1 1 3 "experimental" 62 "h" "h.bmp" "e" "e.bmp" "STANDING" 4 645 "h" "h" 1
1 1 3 "experimental" 63 "h" "h.bmp" "u" "u.bmp" "STANDING" 8 571 "h" "h" 1
1 1 3 "experimental" 64 "h" "h.bmp" "e" "e.bmp" "STANDING" 8 526 "h" "h" 1
1 1 3 "experimental" 65 "h" "h.bmp" "e" "e.bmp" "STANDING" 4 627 "h" "h" 1
1 1 3 "experimental" 66 "s" "s.bmp" "u" "u.bmp" "STANDING" 4 488 "s" "s" 1
1 1 3 "experimental" 67 "s" "s.bmp" "e" "e.bmp" "STANDING" 8 662 "s" "s" 1
1 1 3 "experimental" 68 "h" "h.bmp" "e" "e.bmp" "STANDING" 8 670 "h" "h" 1
1 1 3 "experimental" 69 "h" "h.bmp" "u" "u.bmp" "STANDING" 8 656 "h" "h" 1
1 1 3 "experimental" 70 "s" "s.bmp" "u" "u.bmp" "STANDING" 8 527 "s" "s" 1
1 1 3 "experimental" 71 "h" "h.bmp" "u" "u.bmp" "STANDING" 4 485 "h" "h" 1
1 1 3 "experimental" 72 "s" "s.bmp" "e" "e.bmp" "STANDING" 4 546 "s" "s" 1
1 1 3 "experimental" 73 "h" "h.bmp" "e" "e.bmp" "STANDING" 8 635 "h" "h" 1
1 1 3 "experimental" 74 "s" "s.bmp" "u" "u.bmp" "STANDING" 4 551 "s" "s" 1
1 1 3 "experimental" 75 "h" "h.bmp" "u" "u.bmp" "STANDING" 4 522 "h" "h" 1
1 1 3 "experimental" 76 "h" "h.bmp" "u" "u.bmp" "STANDING" 8 598 "h" "h" 1
1 1 3 "experimental" 77 "s" "s.bmp" "u" "u.bmp" "STANDING" 8 770 "s" "s" 1
1 1 3 "experimental" 78 "s" "s.bmp" "e" "e.bmp" "STANDING" 8 971 "s" "s" 1
1 1 3 "experimental" 79 "s" "s.bmp" "e" "e.bmp" "STANDING" 4 723 "s" "s" 1
1 1 3 "experimental" 80 "h" "h.bmp" "e" "e.bmp" "STANDING" 4 866 "h" "h" 1
1 1 3 "experimental" 81 "s" "s.bmp" "u" "u.bmp" "STANDING" 8 508 "s" "s" 1
1 1 3 "experimental" 82 "h" "h.bmp" "e" "e.bmp" "STANDING" 8 660 "h" "h" 1
1 1 3 "experimental" 83 "h" "h.bmp" "u" "u.bmp" "STANDING" 4 612 "h" "h" 1
1 1 3 "experimental" 84 "s" "s.bmp" "u" "u.bmp" "STANDING" 4 632 "s" "s" 1
1 1 3 "experimental" 85 "h" "h.bmp" "u" "u.bmp" "STANDING" 8 476 "h" "h" 1
1 1 3 "experimental" 86 "s" "s.bmp" "e" "e.bmp" "STANDING" 4 569 "s" "s" 1
1 1 3 "experimental" 87 "h" "h.bmp" "e" "e.bmp" "STANDING" 4 452 "h" "h" 1
1 1 3 "experimental" 88 "s" "s.bmp" "e" "e.bmp" "STANDING" 8 484 "s" "s" 1
1 1 3 "experimental" 89 "h" "h.bmp" "u" "u.bmp" "STANDING" 8 467 "h" "h" 1
1 1 3 "experimental" 90 "h" "h.bmp" "e" "e.bmp" "STANDING" 4 671 "h" "h" 1
1 1 3 "experimental" 91 "s" "s.bmp" "e" "e.bmp" "STANDING" 8 616 "s" "s" 1
1 1 3 "experimental" 92 "s" "s.bmp" "u" "u.bmp" "STANDING" 8 594 "s" "s" 1
1 1 3 "experimental" 93 "s" "s.bmp" "e" "e.bmp" "STANDING" 4 617 "s" "s" 1
1 1 3 "experimental" 94 "h" "h.bmp" "u" "u.bmp" "STANDING" 4 470 "h" "h" 1
1 1 3 "experimental" 95 "s" "s.bmp" "u" "u.bmp" "STANDING" 4 512 "s" "s" 1
1 1 3 "experimental" 96 "h" "h.bmp" "e" "e.bmp" "STANDING" 8 533 "h" "h" 1
1 1 3 "experimental" 97 "s" "s.bmp" "e" "e.bmp" "STANDING" 8 504 "s" "s" 1
1 1 3 "experimental" 98 "h" "h.bmp" "e" "e.bmp" "STANDING" 4 557 "h" "h" 1
1 1 3 "experimental" 99 "h" "h.bmp" "u" "u.bmp" "STANDING" 4 519 "h" "h" 1
1 1 3 "experimental" 100 "h" "h.bmp" "e" "e.bmp" "STANDING" 8 715 "h" "h" 1
1 1 3 "experimental" 101 "s" "s.bmp" "u" "u.bmp" "STANDING" 8 559 "s" "s" 1
1 1 3 "experimental" 102 "h" "h.bmp" "u" "u.bmp" "STANDING" 8 591 "h" "h" 1
1 1 3 "experimental" 103 "s" "s.bmp" "e" "e.bmp" "STANDING" 4 487 "s" "s" 1
1 1 3 "experimental" 104 "s" "s.bmp" "u" "u.bmp" "STANDING" 4 693 "s" "s" 1
1 1 3 "experimental" 105 "s" "s.bmp" "e" "e.bmp" "STANDING" 8 571 "s" "s" 1
1 1 3 "experimental" 106 "s" "s.bmp" "u" "u.bmp" "STANDING" 4 629 "s" "s" 1
1 1 3 "experimental" 107 "s" "s.bmp" "u" "u.bmp" "STANDING" 8 538 "s" "s" 1
1 1 3 "experimental" 108 "h" "h.bmp" "e" "e.bmp" "STANDING" 8 711 "h" "h" 1
1 1 3 "experimental" 109 "h" "h.bmp" "e" "e.bmp" "STANDING" 4 783 "h" "h" 1
1 1 3 "experimental" 110 "h" "h.bmp" "u" "u.bmp" "STANDING" 4 539 "h" "h" 1
1 1 3 "experimental" 111 "s" "s.bmp" "e" "e.bmp" "STANDING" 4 673 "s" "s" 1
1 1 3 "experimental" 112 "h" "h.bmp" "u" "u.bmp" "STANDING" 8 637 "h" "h" 1
1 1 3 "experimental" 113 "s" "s.bmp" "e" "e.bmp" "STANDING" 4 537 "s" "s" 1
1 1 3 "experimental" 114 "h" "h.bmp" "e" "e.bmp" "STANDING" 8 600 "h" "h" 1
1 1 3 "experimental" 115 "h" "h.bmp" "u" "u.bmp" "STANDING" 4 560 "h" "h" 1
1 1 3 "experimental" 116 "h" "h.bmp" "e" "e.bmp" "STANDING" 4 562 "h" "h" 1
1 1 3 "experimental" 117 "h" "h.bmp" "u" "u.bmp" "STANDING" 8 477 "h" "h" 1
1 1 3 "experimental" 118 "s" "s.bmp" "u" "u.bmp" "STANDING" 8 726 "s" "s" 1
1 1 3 "experimental" 119 "s" "s.bmp" "u" "u.bmp" "STANDING" 4 1113 "s" "s" 1
1 1 3 "experimental" 120 "s" "s.bmp" "e" "e.bmp" "STANDING" 8 581 "s" "s" 1
1 1 3 "experimental" 121 "h" "h.bmp" "u" "u.bmp" "STANDING" 8 823 "h" "h" 1
1 1 3 "experimental" 122 "s" "s.bmp" "e" "e.bmp" "STANDING" 8 748 "s" "s" 1
1 1 3 "experimental" 123 "s" "s.bmp" "u" "u.bmp" "STANDING" 8 626 "s" "s" 1
1 1 3 "experimental" 124 "h" "h.bmp" "e" "e.bmp" "STANDING" 4 892 "h" "h" 1
1 1 3 "experimental" 125 "h" "h.bmp" "e" "e.bmp" "STANDING" 8 783 "h" "h" 1
1 1 3 "experimental" 126 "s" "s.bmp" "u" "u.bmp" "STANDING" 4 603 "s" "s" 1
1 1 3 "experimental" 127 "s" "s.bmp" "e" "e.bmp" "STANDING" 4 723 "s" "s" 1
1 1 3 "experimental" 128 "h" "h.bmp" "u" "u.bmp" "STANDING" 4 525 "h" "h" 1
10 2 2 "experimental" 1 "s" "s.bmp" "e" "e.bmp" "STANDING" 8 716 "s" "s" 1
10 2 2 "experimental" 2 "h" "h.bmp" "u" "u.bmp" "STANDING" 8 808 "h" "h" 1
10 2 2 "experimental" 3 "s" "s.bmp" "u" "u.bmp" "STANDING" 8 683 "s" "s" 1
10 2 2 "experimental" 4 "h" "h.bmp" "e" "e.bmp" "STANDING" 8 1011 "h" "h" 1
10 2 2 "experimental" 5 "s" "s.bmp" "e" "e.bmp" "STANDING" 4 1405 "s" "s" 1
10 2 2 "experimental" 6 "h" "h.bmp" "u" "u.bmp" "STANDING" 4 826 "h" "h" 1
10 2 2 "experimental" 7 "s" "s.bmp" "u" "u.bmp" "STANDING" 4 928 "s" "s" 1
10 2 2 "experimental" 8 "h" "h.bmp" "e" "e.bmp" "STANDING" 4 735 "h" "h" 1
10 2 2 "experimental" 9 "s" "s.bmp" "u" "u.bmp" "STANDING" 4 557 "s" "s" 1
10 2 2 "experimental" 10 "s" "s.bmp" "e" "e.bmp" "STANDING" 4 918 "s" "s" 1
10 2 2 "experimental" 11 "s" "s.bmp" "e" "e.bmp" "STANDING" 8 1277 "s" "s" 1
10 2 2 "experimental" 12 "h" "h.bmp" "e" "e.bmp" "STANDING" 8 995 "h" "h" 1
10 2 2 "experimental" 13 "s" "s.bmp" "u" "u.bmp" "STANDING" 8 814 "s" "s" 1
10 2 2 "experimental" 14 "h" "h.bmp" "u" "u.bmp" "STANDING" 4 950 "h" "h" 1
10 2 2 "experimental" 15 "h" "h.bmp" "u" "u.bmp" "STANDING" 8 1195 "h" "h" 1
10 2 2 "experimental" 16 "h" "h.bmp" "e" "e.bmp" "STANDING" 4 877 "h" "h" 1
10 2 2 "experimental" 17 "h" "h.bmp" "u" "u.bmp" "STANDING" 8 894 "h" "h" 1
10 2 2 "experimental" 18 "h" "h.bmp" "e" "e.bmp" "STANDING" 8 763 "h" "h" 1
10 2 2 "experimental" 19 "s" "s.bmp" "e" "e.bmp" "STANDING" 4 832 "s" "s" 1
10 2 2 "experimental" 20 "s" "s.bmp" "u" "u.bmp" "STANDING" 4 739 "s" "s" 1
10 2 2 "experimental" 21 "h" "h.bmp" "e" "e.bmp" "STANDING" 4 747 "h" "h" 1
10 2 2 "experimental" 22 "h" "h.bmp" "u" "u.bmp" "STANDING" 4 912 "h" "h" 1
10 2 2 "experimental" 23 "s" "s.bmp" "u" "u.bmp" "STANDING" 8 890 "s" "s" 1
10 2 2 "experimental" 24 "s" "s.bmp" "e" "e.bmp" "STANDING" 8 1133 "s" "s" 1
10 2 2 "experimental" 25 "h" "h.bmp" "e" "e.bmp" "STANDING" 4 874 "h" "h" 1
10 2 2 "experimental" 26 "h" "h.bmp" "u" "u.bmp" "STANDING" 8 1412 "h" "h" 1
10 2 2 "experimental" 27 "s" "s.bmp" "e" "e.bmp" "STANDING" 8 863 "s" "s" 1
10 2 2 "experimental" 28 "h" "h.bmp" "e" "e.bmp" "STANDING" 8 869 "h" "h" 1
10 2 2 "experimental" 29 "s" "s.bmp" "u" "u.bmp" "STANDING" 8 854 "s" "s" 1
10 2 2 "experimental" 30 "s" "s.bmp" "e" "e.bmp" "STANDING" 4 1036 "s" "s" 1
10 2 2 "experimental" 31 "h" "h.bmp" "u" "u.bmp" "STANDING" 4 1125 "h" "h" 1
10 2 2 "experimental" 32 "s" "s.bmp" "u" "u.bmp" "STANDING" 4 940 "s" "s" 1
10 2 2 "experimental" 33 "h" "h.bmp" "u" "u.bmp" "STANDING" 4 903 "h" "h" 1
10 2 2 "experimental" 34 "s" "s.bmp" "e" "e.bmp" "STANDING" 4 731 "s" "s" 1
10 2 2 "experimental" 35 "h" "h.bmp" "e" "e.bmp" "STANDING" 8 1488 "h" "h" 1
10 2 2 "experimental" 36 "s" "s.bmp" "u" "u.bmp" "STANDING" 8 827 "s" "s" 1
10 2 2 "experimental" 37 "s" "s.bmp" "e" "e.bmp" "STANDING" 8 965 "s" "s" 1
10 2 2 "experimental" 38 "s" "s.bmp" "u" "u.bmp" "STANDING" 4 1035 "s" "s" 1
10 2 2 "experimental" 39 "h" "h.bmp" "u" "u.bmp" "STANDING" 8 873 "h" "h" 1
10 2 2 "experimental" 40 "h" "h.bmp" "e" "e.bmp" "STANDING" 4 1105 "h" "h" 1
10 2 2 "experimental" 41 "s" "s.bmp" "e" "e.bmp" "STANDING" 8 937 "s" "s" 1
10 2 2 "experimental" 42 "h" "h.bmp" "e" "e.bmp" "STANDING" 8 1144 "h" "h" 1
10 2 2 "experimental" 43 "s" "s.bmp" "u" "u.bmp" "STANDING" 8 1437 "s" "s" 1
10 2 2 "experimental" 44 "h" "h.bmp" "e" "e.bmp" "STANDING" 4 1081 "h" "h" 1
10 2 2 "experimental" 45 "s" "s.bmp" "e" "e.bmp" "STANDING" 4 988 "s" "s" 1
10 2 2 "experimental" 46 "s" "s.bmp" "u" "u.bmp" "STANDING" 4 1253 "s" "s" 1
10 2 2 "experimental" 47 "h" "h.bmp" "u" "u.bmp" "STANDING" 4 1014 "h" "h" 1
10 2 2 "experimental" 48 "h" "h.bmp" "u" "u.bmp" "STANDING" 8 1413 "h" "h" 1
10 2 2 "experimental" 49 "s" "s.bmp" "u" "u.bmp" "STANDING" 4 1014 "s" "s" 1
10 2 2 "experimental" 50 "h" "h.bmp" "u" "u.bmp" "STANDING" 4 1181 "h" "h" 1
10 2 2 "experimental" 51 "s" "s.bmp" "u" "u.bmp" "STANDING" 8 1163 "s" "s" 1
10 2 2 "experimental" 52 "h" "h.bmp" "u" "u.bmp" "STANDING" 8 1031 "s" "h" 0
10 2 2 "experimental" 53 "h" "h.bmp" "e" "e.bmp" "STANDING" 4 1210 "h" "h" 1
10 2 2 "experimental" 54 "s" "s.bmp" "e" "e.bmp" "STANDING" 8 972 "s" "s" 1
10 2 2 "experimental" 55 "h" "h.bmp" "e" "e.bmp" "STANDING" 8 1246 "h" "h" 1
10 2 2 "experimental" 56 "s" "s.bmp" "e" "e.bmp" "STANDING" 4 996 "s" "s" 1
10 2 2 "experimental" 57 "h" "h.bmp" "u" "u.bmp" "STANDING" 4 995 "h" "h" 1
10 2 2 "experimental" 58 "s" "s.bmp" "e" "e.bmp" "STANDING" 8 961 "s" "s" 1
10 2 2 "experimental" 59 "s" "s.bmp" "u" "u.bmp" "STANDING" 8 1199 "s" "s" 1
10 2 2 "experimental" 60 "h" "h.bmp" "e" "e.bmp" "STANDING" 4 1054 "h" "h" 1
10 2 2 "experimental" 61 "h" "h.bmp" "e" "e.bmp" "STANDING" 8 1091 "h" "h" 1
10 2 2 "experimental" 62 "s" "s.bmp" "e" "e.bmp" "STANDING" 4 943 "s" "s" 1
10 2 2 "experimental" 63 "h" "h.bmp" "u" "u.bmp" "STANDING" 8 1025 "h" "h" 1
10 2 2 "experimental" 64 "s" "s.bmp" "u" "u.bmp" "STANDING" 4 986 "s" "s" 1
10 2 2 "experimental" 65 "s" "s.bmp" "u" "u.bmp" "STANDING" 8 1036 "s" "s" 1
10 2 2 "experimental" 66 "s" "s.bmp" "e" "e.bmp" "STANDING" 4 1125 "s" "s" 1
10 2 2 "experimental" 67 "s" "s.bmp" "u" "u.bmp" "STANDING" 4 1276 "s" "s" 1
10 2 2 "experimental" 68 "h" "h.bmp" "e" "e.bmp" "STANDING" 8 1834 "h" "h" 1
10 2 2 "experimental" 69 "h" "h.bmp" "e" "e.bmp" "STANDING" 4 989 "h" "h" 1
10 2 2 "experimental" 70 "h" "h.bmp" "u" "u.bmp" "STANDING" 4 1039 "h" "h" 1
10 2 2 "experimental" 71 "h" "h.bmp" "u" "u.bmp" "STANDING" 8 834 "h" "h" 1
10 2 2 "experimental" 72 "s" "s.bmp" "e" "e.bmp" "STANDING" 8 1114 "s" "s" 1
10 2 2 "experimental" 73 "h" "h.bmp" "e" "e.bmp" "STANDING" 8 1001 "h" "h" 1
10 2 2 "experimental" 74 "s" "s.bmp" "u" "u.bmp" "STANDING" 4 914 "s" "s" 1
10 2 2 "experimental" 75 "s" "s.bmp" "e" "e.bmp" "STANDING" 8 1569 "s" "s" 1
10 2 2 "experimental" 76 "s" "s.bmp" "u" "u.bmp" "STANDING" 8 1059 "s" "s" 1
10 2 2 "experimental" 77 "s" "s.bmp" "e" "e.bmp" "STANDING" 4 1039 "s" "s" 1
10 2 2 "experimental" 78 "h" "h.bmp" "u" "u.bmp" "STANDING" 4 1087 "h" "h" 1
10 2 2 "experimental" 79 "h" "h.bmp" "u" "u.bmp" "STANDING" 8 1448 "h" "h" 1
10 2 2 "experimental" 80 "h" "h.bmp" "e" "e.bmp" "STANDING" 4 816 "h" "h" 1
10 2 2 "experimental" 81 "s" "s.bmp" "e" "e.bmp" "STANDING" 4 872 "s" "s" 1
10 2 2 "experimental" 82 "s" "s.bmp" "e" "e.bmp" "STANDING" 8 1089 "s" "s" 1
10 2 2 "experimental" 83 "s" "s.bmp" "u" "u.bmp" "STANDING" 4 1091 "s" "s" 1
10 2 2 "experimental" 84 "h" "h.bmp" "u" "u.bmp" "STANDING" 4 924 "h" "h" 1
10 2 2 "experimental" 85 "h" "h.bmp" "u" "u.bmp" "STANDING" 8 1261 "h" "h" 1
10 2 2 "experimental" 86 "s" "s.bmp" "u" "u.bmp" "STANDING" 8 952 "s" "s" 1
10 2 2 "experimental" 87 "h" "h.bmp" "e" "e.bmp" "STANDING" 4 1078 "h" "h" 1
10 2 2 "experimental" 88 "h" "h.bmp" "e" "e.bmp" "STANDING" 8 1206 "h" "h" 1
10 2 2 "experimental" 89 "s" "s.bmp" "e" "e.bmp" "STANDING" 8 815 "s" "s" 1
10 2 2 "experimental" 90 "h" "h.bmp" "u" "u.bmp" "STANDING" 8 994 "h" "h" 1
10 2 2 "experimental" 91 "s" "s.bmp" "u" "u.bmp" "STANDING" 8 1097 "s" "s" 1
10 2 2 "experimental" 92 "s" "s.bmp" "u" "u.bmp" "STANDING" 4 1132 "s" "s" 1
10 2 2 "experimental" 93 "h" "h.bmp" "e" "e.bmp" "STANDING" 8 1169 "h" "h" 1
10 2 2 "experimental" 94 "h" "h.bmp" "e" "e.bmp" "STANDING" 4 990 "h" "h" 1
10 2 2 "experimental" 95 "s" "s.bmp" "e" "e.bmp" "STANDING" 4 1026 "s" "s" 1
10 2 2 "experimental" 96 "h" "h.bmp" "u" "u.bmp" "STANDING" 4 808 "h" "h" 1
10 2 2 "experimental" 97 "s" "s.bmp" "u" "u.bmp" "STANDING" 8 961 "s" "s" 1
10 2 2 "experimental" 98 "h" "h.bmp" "e" "e.bmp" "STANDING" 4 917 "h" "h" 1
10 2 2 "experimental" 99 "s" "s.bmp" "u" "u.bmp" "STANDING" 4 902 "s" "s" 1
10 2 2 "experimental" 100 "h" "h.bmp" "e" "e.bmp" "STANDING" 8 1203 "h" "h" 1
10 2 2 "experimental" 101 "s" "s.bmp" "e" "e.bmp" "STANDING" 4 757 "s" "s" 1
10 2 2 "experimental" 102 "h" "h.bmp" "u" "u.bmp" "STANDING" 8 909 "h" "h" 1
10 2 2 "experimental" 103 "s" "s.bmp" "e" "e.bmp" "STANDING" 8 818 "s" "s" 1
10 2 2 "experimental" 104 "h" "h.bmp" "u" "u.bmp" "STANDING" 4 764 "h" "h" 1
10 2 2 "experimental" 105 "h" "h.bmp" "u" "u.bmp" "STANDING" 8 805 "h" "h" 1
10 2 2 "experimental" 106 "s" "s.bmp" "u" "u.bmp" "STANDING" 4 1041 "s" "s" 1
10 2 2 "experimental" 107 "s" "s.bmp" "e" "e.bmp" "STANDING" 4 859 "s" "s" 1
10 2 2 "experimental" 108 "s" "s.bmp" "u" "u.bmp" "STANDING" 8 1202 "s" "s" 1
10 2 2 "experimental" 109 "h" "h.bmp" "e" "e.bmp" "STANDING" 8 1152 "h" "h" 1
10 2 2 "experimental" 110 "h" "h.bmp" "u" "u.bmp" "STANDING" 4 1323 "h" "h" 1
10 2 2 "experimental" 111 "s" "s.bmp" "e" "e.bmp" "STANDING" 8 812 "s" "s" 1
10 2 2 "experimental" 112 "h" "h.bmp" "e" "e.bmp" "STANDING" 4 1385 "h" "h" 1
10 2 2 "experimental" 113 "s" "s.bmp" "u" "u.bmp" "STANDING" 4 945 "s" "s" 1
10 2 2 "experimental" 114 "s" "s.bmp" "e" "e.bmp" "STANDING" 4 1029 "s" "s" 1
10 2 2 "experimental" 115 "h" "h.bmp" "u" "u.bmp" "STANDING" 8 1083 "h" "h" 1
10 2 2 "experimental" 116 "s" "s.bmp" "e" "e.bmp" "STANDING" 8 813 "s" "s" 1
10 2 2 "experimental" 117 "h" "h.bmp" "e" "e.bmp" "STANDING" 8 1060 "h" "h" 1
10 2 2 "experimental" 118 "h" "h.bmp" "e" "e.bmp" "STANDING" 4 874 "h" "h" 1
10 2 2 "experimental" 119 "h" "h.bmp" "u" "u.bmp" "STANDING" 4 1051 "h" "h" 1
10 2 2 "experimental" 120 "s" "s.bmp" "u" "u.bmp" "STANDING" 8 950 "s" "s" 1
10 2 2 "experimental" 121 "h" "h.bmp" "u" "u.bmp" "STANDING" 8 1316 "h" "h" 1
10 2 2 "experimental" 122 "h" "h.bmp" "e" "e.bmp" "STANDING" 8 1296 "h" "h" 1
10 2 2 "experimental" 123 "s" "s.bmp" "u" "u.bmp" "STANDING" 8 1174 "s" "s" 1
10 2 2 "experimental" 124 "h" "h.bmp" "e" "e.bmp" "STANDING" 4 671 "h" "h" 1
10 2 2 "experimental" 125 "h" "h.bmp" "u" "u.bmp" "STANDING" 4 929 "h" "h" 1
10 2 2 "experimental" 126 "s" "s.bmp" "e" "e.bmp" "STANDING" 4 1783 "s" "s" 1
10 2 2 "experimental" 127 "s" "s.bmp" "e" "e.bmp" "STANDING" 8 1018 "s" "s" 1
10 2 2 "experimental" 128 "s" "s.bmp" "u" "u.bmp" "STANDING" 4 984 "s" "s" 1
10 2 3 "experimental" 1 "h" "h.bmp" "e" "e.bmp" "SITTING" 4 1522 "h" "h" 1
10 2 3 "experimental" 2 "h" "h.bmp" "u" "u.bmp" "SITTING" 8 878 "h" "h" 1
10 2 3 "experimental" 3 "s" "s.bmp" "e" "e.bmp" "SITTING" 8 898 "s" "s" 1
10 2 3 "experimental" 4 "h" "h.bmp" "e" "e.bmp" "SITTING" 8 1340 "h" "h" 1
10 2 3 "experimental" 5 "s" "s.bmp" "e" "e.bmp" "SITTING" 4 877 "s" "s" 1
10 2 3 "experimental" 6 "s" "s.bmp" "u" "u.bmp" "SITTING" 4 998 "s" "s" 1
10 2 3 "experimental" 7 "h" "h.bmp" "u" "u.bmp" "SITTING" 4 865 "h" "h" 1
10 2 3 "experimental" 8 "s" "s.bmp" "u" "u.bmp" "SITTING" 8 841 "s" "s" 1
10 2 3 "experimental" 9 "s" "s.bmp" "e" "e.bmp" "SITTING" 8 852 "s" "s" 1
10 2 3 "experimental" 10 "h" "h.bmp" "e" "e.bmp" "SITTING" 8 890 "h" "h" 1
10 2 3 "experimental" 11 "s" "s.bmp" "e" "e.bmp" "SITTING" 4 941 "s" "s" 1
10 2 3 "experimental" 12 "h" "h.bmp" "u" "u.bmp" "SITTING" 4 944 "h" "h" 1
10 2 3 "experimental" 13 "s" "s.bmp" "u" "u.bmp" "SITTING" 8 1235 "s" "s" 1
10 2 3 "experimental" 14 "h" "h.bmp" "e" "e.bmp" "SITTING" 4 868 "h" "h" 1
10 2 3 "experimental" 15 "h" "h.bmp" "u" "u.bmp" "SITTING" 8 981 "h" "h" 1
10 2 3 "experimental" 16 "s" "s.bmp" "u" "u.bmp" "SITTING" 4 939 "s" "s" 1
10 2 3 "experimental" 17 "s" "s.bmp" "e" "e.bmp" "SITTING" 4 757 "s" "s" 1
10 2 3 "experimental" 18 "h" "h.bmp" "u" "u.bmp" "SITTING" 8 872 "h" "h" 1
10 2 3 "experimental" 19 "h" "h.bmp" "e" "e.bmp" "SITTING" 4 1321 "h" "h" 1
10 2 3 "experimental" 20 "h" "h.bmp" "u" "u.bmp" "SITTING" 4 998 "h" "h" 1
10 2 3 "experimental" 21 "s" "s.bmp" "u" "u.bmp" "SITTING" 8 717 "s" "s" 1
10 2 3 "experimental" 22 "h" "h.bmp" "e" "e.bmp" "SITTING" 8 892 "h" "h" 1
10 2 3 "experimental" 23 "s" "s.bmp" "u" "u.bmp" "SITTING" 4 769 "s" "s" 1
10 2 3 "experimental" 24 "s" "s.bmp" "e" "e.bmp" "SITTING" 8 834 "s" "s" 1
10 2 3 "experimental" 25 "s" "s.bmp" "e" "e.bmp" "SITTING" 4 693 "s" "s" 1
10 2 3 "experimental" 26 "h" "h.bmp" "u" "u.bmp" "SITTING" 4 1090 "h" "h" 1
10 2 3 "experimental" 27 "s" "s.bmp" "e" "e.bmp" "SITTING" 8 844 "s" "s" 1
10 2 3 "experimental" 28 "s" "s.bmp" "u" "u.bmp" "SITTING" 8 921 "s" "s" 1
10 2 3 "experimental" 29 "h" "h.bmp" "e" "e.bmp" "SITTING" 4 858 "h" "h" 1
10 2 3 "experimental" 30 "s" "s.bmp" "u" "u.bmp" "SITTING" 4 783 "s" "s" 1
10 2 3 "experimental" 31 "h" "h.bmp" "e" "e.bmp" "SITTING" 8 1388 "h" "h" 1
10 2 3 "experimental" 32 "h" "h.bmp" "u" "u.bmp" "SITTING" 8 1411 "h" "h" 1
10 2 3 "experimental" 33 "h" "h.bmp" "e" "e.bmp" "SITTING" 4 1237 "h" "h" 1
10 2 3 "experimental" 34 "h" "h.bmp" "e" "e.bmp" "SITTING" 8 1189 "h" "h" 1
10 2 3 "experimental" 35 "s" "s.bmp" "u" "u.bmp" "SITTING" 8 1018 "s" "s" 1
10 2 3 "experimental" 36 "s" "s.bmp" "u" "u.bmp" "SITTING" 4 1320 "s" "s" 1
10 2 3 "experimental" 37 "s" "s.bmp" "e" "e.bmp" "SITTING" 4 1100 "s" "s" 1
10 2 3 "experimental" 38 "s" "s.bmp" "e" "e.bmp" "SITTING" 8 1214 "s" "s" 1
10 2 3 "experimental" 39 "h" "h.bmp" "u" "u.bmp" "SITTING" 8 1201 "h" "h" 1
10 2 3 "experimental" 40 "h" "h.bmp" "u" "u.bmp" "SITTING" 4 1107 "h" "h" 1
10 2 3 "experimental" 41 "s" "s.bmp" "e" "e.bmp" "SITTING" 4 1113 "s" "s" 1
10 2 3 "experimental" 42 "h" "h.bmp" "e" "e.bmp" "SITTING" 8 1180 "h" "h" 1
10 2 3 "experimental" 43 "s" "s.bmp" "u" "u.bmp" "SITTING" 4 1148 "s" "s" 1
10 2 3 "experimental" 44 "s" "s.bmp" "u" "u.bmp" "SITTING" 8 1046 "s" "s" 1
10 2 3 "experimental" 45 "s" "s.bmp" "e" "e.bmp" "SITTING" 8 1312 "s" "s" 1
10 2 3 "experimental" 46 "h" "h.bmp" "u" "u.bmp" "SITTING" 4 1500 "h" "h" 1
10 2 3 "experimental" 47 "h" "h.bmp" "u" "u.bmp" "SITTING" 8 2044 "h" "h" 1
10 2 3 "experimental" 48 "h" "h.bmp" "e" "e.bmp" "SITTING" 4 1054 "h" "h" 1
10 2 3 "experimental" 49 "s" "s.bmp" "u" "u.bmp" "SITTING" 8 872 "s" "s" 1
10 2 3 "experimental" 50 "h" "h.bmp" "e" "e.bmp" "SITTING" 8 1331 "h" "h" 1
10 2 3 "experimental" 51 "s" "s.bmp" "u" "u.bmp" "SITTING" 4 869 "s" "s" 1
10 2 3 "experimental" 52 "s" "s.bmp" "e" "e.bmp" "SITTING" 4 949 "s" "s" 1
10 2 3 "experimental" 53 "h" "h.bmp" "u" "u.bmp" "SITTING" 8 1054 "h" "h" 1
10 2 3 "experimental" 54 "s" "s.bmp" "e" "e.bmp" "SITTING" 8 1141 "s" "s" 1
10 2 3 "experimental" 55 "h" "h.bmp" "e" "e.bmp" "SITTING" 4 996 "h" "h" 1
10 2 3 "experimental" 56 "h" "h.bmp" "u" "u.bmp" "SITTING" 4 1127 "h" "h" 1
10 2 3 "experimental" 57 "s" "s.bmp" "u" "u.bmp" "SITTING" 4 968 "s" "s" 1
10 2 3 "experimental" 58 "s" "s.bmp" "e" "e.bmp" "SITTING" 8 975 "s" "s" 1
10 2 3 "experimental" 59 "s" "s.bmp" "u" "u.bmp" "SITTING" 8 1350 "s" "s" 1
10 2 3 "experimental" 60 "h" "h.bmp" "u" "u.bmp" "SITTING" 4 1934 "h" "h" 1
10 2 3 "experimental" 61 "h" "h.bmp" "u" "u.bmp" "SITTING" 8 800 "h" "h" 1
10 2 3 "experimental" 62 "s" "s.bmp" "e" "e.bmp" "SITTING" 4 1220 "s" "s" 1
10 2 3 "experimental" 63 "h" "h.bmp" "e" "e.bmp" "SITTING" 8 875 "h" "h" 1
10 2 3 "experimental" 64 "h" "h.bmp" "e" "e.bmp" "SITTING" 4 1148 "h" "h" 1
10 2 3 "experimental" 65 "h" "h.bmp" "e" "e.bmp" "SITTING" 8 1151 "h" "h" 1
10 2 3 "experimental" 66 "h" "h.bmp" "u" "u.bmp" "SITTING" 4 986 "h" "h" 1
10 2 3 "experimental" 67 "s" "s.bmp" "u" "u.bmp" "SITTING" 8 1073 "s" "s" 1
10 2 3 "experimental" 68 "h" "h.bmp" "e" "e.bmp" "SITTING" 4 851 "h" "h" 1
10 2 3 "experimental" 69 "s" "s.bmp" "e" "e.bmp" "SITTING" 4 1021 "s" "s" 1
10 2 3 "experimental" 70 "s" "s.bmp" "e" "e.bmp" "SITTING" 8 1169 "h" "s" 0
10 2 3 "experimental" 71 "s" "s.bmp" "u" "u.bmp" "SITTING" 4 1369 "s" "s" 1
10 2 3 "experimental" 72 "h" "h.bmp" "u" "u.bmp" "SITTING" 8 1186 "h" "h" 1
10 2 3 "experimental" 73 "s" "s.bmp" "u" "u.bmp" "SITTING" 4 1060 "s" "s" 1
10 2 3 "experimental" 74 "s" "s.bmp" "e" "e.bmp" "SITTING" 8 1098 "s" "s" 1
10 2 3 "experimental" 75 "h" "h.bmp" "u" "u.bmp" "SITTING" 8 1531 "h" "h" 1
10 2 3 "experimental" 76 "h" "h.bmp" "e" "e.bmp" "SITTING" 8 1312 "h" "h" 1
10 2 3 "experimental" 77 "h" "h.bmp" "u" "u.bmp" "SITTING" 4 1043 "h" "h" 1
10 2 3 "experimental" 78 "s" "s.bmp" "u" "u.bmp" "SITTING" 8 965 "s" "s" 1
10 2 3 "experimental" 79 "s" "s.bmp" "e" "e.bmp" "SITTING" 4 1091 "s" "s" 1
10 2 3 "experimental" 80 "h" "h.bmp" "e" "e.bmp" "SITTING" 4 951 "h" "h" 1
10 2 3 "experimental" 81 "s" "s.bmp" "e" "e.bmp" "SITTING" 4 905 "s" "s" 1
10 2 3 "experimental" 82 "h" "h.bmp" "e" "e.bmp" "SITTING" 4 1753 "h" "h" 1
10 2 3 "experimental" 83 "s" "s.bmp" "e" "e.bmp" "SITTING" 8 1003 "s" "s" 1
10 2 3 "experimental" 84 "s" "s.bmp" "u" "u.bmp" "SITTING" 8 1071 "s" "s" 1
10 2 3 "experimental" 85 "h" "h.bmp" "e" "e.bmp" "SITTING" 8 1601 "h" "h" 1
10 2 3 "experimental" 86 "s" "s.bmp" "u" "u.bmp" "SITTING" 4 1131 "s" "s" 1
10 2 3 "experimental" 87 "h" "h.bmp" "u" "u.bmp" "SITTING" 8 1312 "h" "h" 1
10 2 3 "experimental" 88 "h" "h.bmp" "u" "u.bmp" "SITTING" 4 1003 "h" "h" 1
10 2 3 "experimental" 89 "s" "s.bmp" "e" "e.bmp" "SITTING" 4 850 "s" "s" 1
10 2 3 "experimental" 90 "s" "s.bmp" "u" "u.bmp" "SITTING" 4 1007 "s" "s" 1
10 2 3 "experimental" 91 "h" "h.bmp" "e" "e.bmp" "SITTING" 8 1011 "h" "h" 1
10 2 3 "experimental" 92 "h" "h.bmp" "u" "u.bmp" "SITTING" 8 776 "h" "h" 1
10 2 3 "experimental" 93 "s" "s.bmp" "e" "e.bmp" "SITTING" 8 828 "s" "s" 1
10 2 3 "experimental" 94 "h" "h.bmp" "u" "u.bmp" "SITTING" 4 1100 "h" "h" 1
10 2 3 "experimental" 95 "h" "h.bmp" "e" "e.bmp" "SITTING" 4 919 "h" "h" 1
10 2 3 "experimental" 96 "s" "s.bmp" "u" "u.bmp" "SITTING" 8 1086 "s" "s" 1
10 2 3 "experimental" 97 "s" "s.bmp" "e" "e.bmp" "SITTING" 4 1168 "s" "s" 1
10 2 3 "experimental" 98 "s" "s.bmp" "u" "u.bmp" "SITTING" 8 1181 "s" "s" 1
10 2 3 "experimental" 99 "h" "h.bmp" "e" "e.bmp" "SITTING" 8 1334 "h" "h" 1
10 2 3 "experimental" 100 "s" "s.bmp" "e" "e.bmp" "SITTING" 8 962 "s" "s" 1
10 2 3 "experimental" 101 "h" "h.bmp" "u" "u.bmp" "SITTING" 8 1178 "h" "h" 1
10 2 3 "experimental" 102 "h" "h.bmp" "e" "e.bmp" "SITTING" 4 1082 "h" "h" 1
10 2 3 "experimental" 103 "s" "s.bmp" "u" "u.bmp" "SITTING" 4 911 "s" "s" 1
10 2 3 "experimental" 104 "h" "h.bmp" "u" "u.bmp" "SITTING" 4 1002 "h" "h" 1
10 2 3 "experimental" 105 "s" "s.bmp" "u" "u.bmp" "SITTING" 8 1089 "s" "s" 1
10 2 3 "experimental" 106 "h" "h.bmp" "u" "u.bmp" "SITTING" 4 1272 "h" "h" 1
10 2 3 "experimental" 107 "s" "s.bmp" "u" "u.bmp" "SITTING" 4 1127 "s" "s" 1
10 2 3 "experimental" 108 "s" "s.bmp" "e" "e.bmp" "SITTING" 8 1478 "s" "s" 1
10 2 3 "experimental" 109 "h" "h.bmp" "u" "u.bmp" "SITTING" 8 1033 "h" "h" 1
10 2 3 "experimental" 110 "s" "s.bmp" "e" "e.bmp" "SITTING" 4 995 "s" "s" 1
10 2 3 "experimental" 111 "h" "h.bmp" "e" "e.bmp" "SITTING" 8 958 "h" "h" 1
10 2 3 "experimental" 112 "h" "h.bmp" "e" "e.bmp" "SITTING" 4 1355 "h" "h" 1
10 2 3 "experimental" 113 "s" "s.bmp" "u" "u.bmp" "SITTING" 8 1084 "s" "s" 1
10 2 3 "experimental" 114 "h" "h.bmp" "u" "u.bmp" "SITTING" 8 1318 "h" "h" 1
10 2 3 "experimental" 115 "h" "h.bmp" "u" "u.bmp" "SITTING" 4 1163 "h" "h" 1
10 2 3 "experimental" 116 "h" "h.bmp" "e" "e.bmp" "SITTING" 4 1167 "h" "h" 1
10 2 3 "experimental" 117 "s" "s.bmp" "e" "e.bmp" "SITTING" 8 1442 "s" "s" 1
10 2 3 "experimental" 118 "s" "s.bmp" "e" "e.bmp" "SITTING" 4 1049 "s" "s" 1
10 2 3 "experimental" 119 "h" "h.bmp" "e" "e.bmp" "SITTING" 8 1312 "h" "h" 1
10 2 3 "experimental" 120 "s" "s.bmp" "u" "u.bmp" "SITTING" 4 1079 "s" "s" 1
10 2 3 "experimental" 121 "h" "h.bmp" "u" "u.bmp" "SITTING" 8 1115 "h" "h" 1
10 2 3 "experimental" 122 "s" "s.bmp" "u" "u.bmp" "SITTING" 4 948 "s" "s" 1
10 2 3 "experimental" 123 "s" "s.bmp" "e" "e.bmp" "SITTING" 8 1144 "s" "s" 1
10 2 3 "experimental" 124 "h" "h.bmp" "e" "e.bmp" "SITTING" 8 1064 "h" "h" 1
10 2 3 "experimental" 125 "s" "s.bmp" "e" "e.bmp" "SITTING" 4 1056 "s" "s" 1
10 2 3 "experimental" 126 "h" "h.bmp" "e" "e.bmp" "SITTING" 4 1035 "h" "h" 1
10 2 3 "experimental" 127 "h" "h.bmp" "u" "u.bmp" "SITTING" 4 1172 "h" "h" 1
10 2 3 "experimental" 128 "s" "s.bmp" "u" "u.bmp" "SITTING" 8 1059 "s" "s" 1
11 2 2 "experimental" 1 "h" "h.bmp" "u" "u.bmp" "STANDING" 4 522 "h" "h" 1
11 2 2 "experimental" 2 "s" "s.bmp" "u" "u.bmp" "STANDING" 4 492 "s" "s" 1
11 2 2 "experimental" 3 "s" "s.bmp" "e" "e.bmp" "STANDING" 4 893 "h" "s" 0
11 2 2 "experimental" 4 "s" "s.bmp" "e" "e.bmp" "STANDING" 8 887 "s" "s" 1
11 2 2 "experimental" 5 "s" "s.bmp" "u" "u.bmp" "STANDING" 8 754 "s" "s" 1
11 2 2 "experimental" 6 "h" "h.bmp" "u" "u.bmp" "STANDING" 8 764 "h" "h" 1
11 2 2 "experimental" 7 "h" "h.bmp" "e" "e.bmp" "STANDING" 8 677 "h" "h" 1
11 2 2 "experimental" 8 "h" "h.bmp" "e" "e.bmp" "STANDING" 4 656 "h" "h" 1
11 2 2 "experimental" 9 "h" "h.bmp" "e" "e.bmp" "STANDING" 8 1520 "h" "h" 1
11 2 2 "experimental" 10 "s" "s.bmp" "e" "e.bmp" "STANDING" 8 926 "s" "s" 1
11 2 2 "experimental" 11 "h" "h.bmp" "u" "u.bmp" "STANDING" 4 587 "h" "h" 1
11 2 2 "experimental" 12 "s" "s.bmp" "u" "u.bmp" "STANDING" 8 724 "s" "s" 1
11 2 2 "experimental" 13 "h" "h.bmp" "e" "e.bmp" "STANDING" 4 540 "h" "h" 1
11 2 2 "experimental" 14 "h" "h.bmp" "u" "u.bmp" "STANDING" 8 579 "h" "h" 1
11 2 2 "experimental" 15 "s" "s.bmp" "e" "e.bmp" "STANDING" 4 505 "s" "s" 1
11 2 2 "experimental" 16 "s" "s.bmp" "u" "u.bmp" "STANDING" 4 714 "s" "s" 1
11 2 2 "experimental" 17 "h" "h.bmp" "u" "u.bmp" "STANDING" 8 763 "h" "h" 1
11 2 2 "experimental" 18 "s" "s.bmp" "e" "e.bmp" "STANDING" 8 763 "s" "s" 1
11 2 2 "experimental" 19 "s" "s.bmp" "u" "u.bmp" "STANDING" 4 547 "s" "s" 1
11 2 2 "experimental" 20 "h" "h.bmp" "e" "e.bmp" "STANDING" 8 836 "h" "h" 1
11 2 2 "experimental" 21 "s" "s.bmp" "u" "u.bmp" "STANDING" 8 685 "s" "s" 1
11 2 2 "experimental" 22 "h" "h.bmp" "u" "u.bmp" "STANDING" 4 1100 "h" "h" 1
11 2 2 "experimental" 23 "h" "h.bmp" "e" "e.bmp" "STANDING" 4 670 "h" "h" 1
11 2 2 "experimental" 24 "s" "s.bmp" "e" "e.bmp" "STANDING" 4 551 "s" "s" 1
11 2 2 "experimental" 25 "s" "s.bmp" "e" "e.bmp" "STANDING" 8 807 "s" "s" 1
11 2 2 "experimental" 26 "h" "h.bmp" "e" "e.bmp" "STANDING" 8 537 "h" "h" 1
11 2 2 "experimental" 27 "h" "h.bmp" "u" "u.bmp" "STANDING" 8 767 "h" "h" 1
11 2 2 "experimental" 28 "h" "h.bmp" "u" "u.bmp" "STANDING" 4 671 "h" "h" 1
11 2 2 "experimental" 29 "s" "s.bmp" "u" "u.bmp" "STANDING" 8 557 "s" "s" 1
11 2 2 "experimental" 30 "h" "h.bmp" "e" "e.bmp" "STANDING" 4 1091 "h" "h" 1
11 2 2 "experimental" 31 "s" "s.bmp" "u" "u.bmp" "STANDING" 4 631 "s" "s" 1
11 2 2 "experimental" 32 "s" "s.bmp" "e" "e.bmp" "STANDING" 4 588 "s" "s" 1
11 2 2 "experimental" 33 "h" "h.bmp" "u" "u.bmp" "STANDING" 8 776 "h" "h" 1
11 2 2 "experimental" 34 "s" "s.bmp" "e" "e.bmp" "STANDING" 8 884 "s" "s" 1
11 2 2 "experimental" 35 "s" "s.bmp" "u" "u.bmp" "STANDING" 4 806 "s" "s" 1
11 2 2 "experimental" 36 "s" "s.bmp" "e" "e.bmp" "STANDING" 4 516 "s" "s" 1
11 2 2 "experimental" 37 "h" "h.bmp" "e" "e.bmp" "STANDING" 4 743 "h" "h" 1
11 2 2 "experimental" 38 "h" "h.bmp" "u" "u.bmp" "STANDING" 4 676 "h" "h" 1
11 2 2 "experimental" 39 "s" "s.bmp" "u" "u.bmp" "STANDING" 8 518 "s" "s" 1
11 2 2 "experimental" 40 "h" "h.bmp" "e" "e.bmp" "STANDING" 8 603 "h" "h" 1
11 2 2 "experimental" 41 "h" "h.bmp" "u" "u.bmp" "STANDING" 4 596 "h" "h" 1
11 2 2 "experimental" 42 "s" "s.bmp" "e" "e.bmp" "STANDING" 8 641 "s" "s" 1
11 2 2 "experimental" 43 "h" "h.bmp" "u" "u.bmp" "STANDING" 8 576 "h" "h" 1
11 2 2 "experimental" 44 "h" "h.bmp" "e" "e.bmp" "STANDING" 4 765 "h" "h" 1
11 2 2 "experimental" 45 "s" "s.bmp" "u" "u.bmp" "STANDING" 4 450 "s" "s" 1
11 2 2 "experimental" 46 "h" "h.bmp" "e" "e.bmp" "STANDING" 8 631 "h" "h" 1
11 2 2 "experimental" 47 "s" "s.bmp" "u" "u.bmp" "STANDING" 8 511 "s" "s" 1
11 2 2 "experimental" 48 "s" "s.bmp" "e" "e.bmp" "STANDING" 4 634 "s" "s" 1
11 2 2 "experimental" 49 "h" "h.bmp" "u" "u.bmp" "STANDING" 8 739 "h" "h" 1
11 2 2 "experimental" 50 "h" "h.bmp" "e" "e.bmp" "STANDING" 8 807 "h" "h" 1
11 2 2 "experimental" 51 "s" "s.bmp" "u" "u.bmp" "STANDING" 8 600 "s" "s" 1
11 2 2 "experimental" 52 "s" "s.bmp" "e" "e.bmp" "STANDING" 8 1047 "s" "s" 1
11 2 2 "experimental" 53 "h" "h.bmp" "u" "u.bmp" "STANDING" 4 889 "h" "h" 1
11 2 2 "experimental" 54 "s" "s.bmp" "u" "u.bmp" "STANDING" 4 581 "s" "s" 1
11 2 2 "experimental" 55 "h" "h.bmp" "e" "e.bmp" "STANDING" 4 754 "h" "h" 1
11 2 2 "experimental" 56 "s" "s.bmp" "e" "e.bmp" "STANDING" 4 897 "s" "s" 1
11 2 2 "experimental" 57 "s" "s.bmp" "u" "u.bmp" "STANDING" 4 605 "s" "s" 1
11 2 2 "experimental" 58 "h" "h.bmp" "e" "e.bmp" "STANDING" 4 623 "h" "h" 1
11 2 2 "experimental" 59 "h" "h.bmp" "e" "e.bmp" "STANDING" 8 666 "h" "h" 1
11 2 2 "experimental" 60 "h" "h.bmp" "u" "u.bmp" "STANDING" 4 596 "h" "h" 1
11 2 2 "experimental" 61 "h" "h.bmp" "u" "u.bmp" "STANDING" 8 795 "h" "h" 1
11 2 2 "experimental" 62 "s" "s.bmp" "e" "e.bmp" "STANDING" 4 502 "s" "s" 1
11 2 2 "experimental" 63 "s" "s.bmp" "u" "u.bmp" "STANDING" 8 846 "s" "s" 1
11 2 2 "experimental" 64 "s" "s.bmp" "e" "e.bmp" "STANDING" 8 723 "s" "s" 1
11 2 2 "experimental" 65 "h" "h.bmp" "e" "e.bmp" "STANDING" 8 760 "h" "h" 1
11 2 2 "experimental" 66 "s" "s.bmp" "e" "e.bmp" "STANDING" 4 500 "s" "s" 1
11 2 2 "experimental" 67 "h" "h.bmp" "u" "u.bmp" "STANDING" 4 664 "h" "h" 1
11 2 2 "experimental" 68 "s" "s.bmp" "u" "u.bmp" "STANDING" 4 725 "s" "s" 1
11 2 2 "experimental" 69 "h" "h.bmp" "e" "e.bmp" "STANDING" 4 740 "h" "h" 1
11 2 2 "experimental" 70 "s" "s.bmp" "e" "e.bmp" "STANDING" 8 748 "s" "s" 1
11 2 2 "experimental" 71 "h" "h.bmp" "u" "u.bmp" "STANDING" 8 1024 "h" "h" 1
11 2 2 "experimental" 72 "s" "s.bmp" "u" "u.bmp" "STANDING" 8 737 "s" "s" 1
11 2 2 "experimental" 73 "s" "s.bmp" "e" "e.bmp" "STANDING" 8 949 "s" "s" 1
11 2 2 "experimental" 74 "h" "h.bmp" "u" "u.bmp" "STANDING" 8 1002 "h" "h" 1
11 2 2 "experimental" 75 "h" "h.bmp" "e" "e.bmp" "STANDING" 8 893 "h" "h" 1
11 2 2 "experimental" 76 "s" "s.bmp" "u" "u.bmp" "STANDING" 4 546 "s" "s" 1
11 2 2 "experimental" 77 "h" "h.bmp" "e" "e.bmp" "STANDING" 4 738 "h" "h" 1
11 2 2 "experimental" 78 "s" "s.bmp" "e" "e.bmp" "STANDING" 4 781 "s" "s" 1
11 2 2 "experimental" 79 "s" "s.bmp" "u" "u.bmp" "STANDING" 8 647 "s" "s" 1
11 2 2 "experimental" 80 "h" "h.bmp" "u" "u.bmp" "STANDING" 4 576 "h" "h" 1
11 2 2 "experimental" 81 "s" "s.bmp" "u" "u.bmp" "STANDING" 8 650 "s" "s" 1
11 2 2 "experimental" 82 "s" "s.bmp" "e" "e.bmp" "STANDING" 4 729 "s" "s" 1
11 2 2 "experimental" 83 "s" "s.bmp" "e" "e.bmp" "STANDING" 8 652 "s" "s" 1
11 2 2 "experimental" 84 "h" "h.bmp" "u" "u.bmp" "STANDING" 4 575 "h" "h" 1
11 2 2 "experimental" 85 "h" "h.bmp" "e" "e.bmp" "STANDING" 8 811 "h" "h" 1
11 2 2 "experimental" 86 "s" "s.bmp" "u" "u.bmp" "STANDING" 4 471 "s" "s" 1
11 2 2 "experimental" 87 "h" "h.bmp" "u" "u.bmp" "STANDING" 8 904 "h" "h" 1
11 2 2 "experimental" 88 "h" "h.bmp" "e" "e.bmp" "STANDING" 4 974 "h" "h" 1
11 2 2 "experimental" 89 "s" "s.bmp" "e" "e.bmp" "STANDING" 4 912 "s" "s" 1
11 2 2 "experimental" 90 "s" "s.bmp" "e" "e.bmp" "STANDING" 8 615 "s" "s" 1
11 2 2 "experimental" 91 "h" "h.bmp" "e" "e.bmp" "STANDING" 8 951 "h" "h" 1
11 2 2 "experimental" 92 "s" "s.bmp" "u" "u.bmp" "STANDING" 4 764 "s" "s" 1
11 2 2 "experimental" 93 "h" "h.bmp" "u" "u.bmp" "STANDING" 8 1020 "h" "h" 1
11 2 2 "experimental" 94 "h" "h.bmp" "e" "e.bmp" "STANDING" 4 859 "h" "h" 1
11 2 2 "experimental" 95 "h" "h.bmp" "u" "u.bmp" "STANDING" 4 2042 "h" "h" 1
11 2 2 "experimental" 96 "s" "s.bmp" "u" "u.bmp" "STANDING" 8 667 "s" "s" 1
11 2 2 "experimental" 97 "s" "s.bmp" "e" "e.bmp" "STANDING" 8 1261 "s" "s" 1
11 2 2 "experimental" 98 "s" "s.bmp" "u" "u.bmp" "STANDING" 4 520 "s" "s" 1
11 2 2 "experimental" 99 "s" "s.bmp" "e" "e.bmp" "STANDING" 4 852 "s" "s" 1
11 2 2 "experimental" 100 "h" "h.bmp" "e" "e.bmp" "STANDING" 8 797 "h" "h" 1
11 2 2 "experimental" 101 "h" "h.bmp" "e" "e.bmp" "STANDING" 4 1018 "h" "h" 1
11 2 2 "experimental" 102 "h" "h.bmp" "u" "u.bmp" "STANDING" 8 1170 "h" "h" 1
11 2 2 "experimental" 103 "s" "s.bmp" "u" "u.bmp" "STANDING" 8 555 "s" "s" 1
11 2 2 "experimental" 104 "h" "h.bmp" "u" "u.bmp" "STANDING" 4 528 "h" "h" 1
11 2 2 "experimental" 105 "h" "h.bmp" "u" "u.bmp" "STANDING" 8 669 "h" "h" 1
11 2 2 "experimental" 106 "s" "s.bmp" "e" "e.bmp" "STANDING" 4 826 "s" "s" 1
11 2 2 "experimental" 107 "h" "h.bmp" "e" "e.bmp" "STANDING" 4 777 "h" "h" 1
11 2 2 "experimental" 108 "h" "h.bmp" "u" "u.bmp" "STANDING" 4 604 "h" "h" 1
11 2 2 "experimental" 109 "s" "s.bmp" "u" "u.bmp" "STANDING" 4 484 "h" "s" 0
11 2 2 "experimental" 110 "h" "h.bmp" "e" "e.bmp" "STANDING" 8 691 "h" "h" 1
11 2 2 "experimental" 111 "s" "s.bmp" "u" "u.bmp" "STANDING" 8 656 "s" "s" 1
11 2 2 "experimental" 112 "s" "s.bmp" "e" "e.bmp" "STANDING" 8 816 "s" "s" 1
11 2 2 "experimental" 113 "h" "h.bmp" "e" "e.bmp" "STANDING" 8 975 "h" "h" 1
11 2 2 "experimental" 114 "s" "s.bmp" "e" "e.bmp" "STANDING" 8 911 "s" "s" 1
11 2 2 "experimental" 115 "h" "h.bmp" "u" "u.bmp" "STANDING" 4 598 "h" "h" 1
11 2 2 "experimental" 116 "s" "s.bmp" "u" "u.bmp" "STANDING" 8 596 "s" "s" 1
11 2 2 "experimental" 117 "h" "h.bmp" "e" "e.bmp" "STANDING" 4 621 "h" "h" 1
11 2 2 "experimental" 118 "s" "s.bmp" "e" "e.bmp" "STANDING" 4 757 "s" "s" 1
11 2 2 "experimental" 119 "h" "h.bmp" "u" "u.bmp" "STANDING" 8 727 "h" "h" 1
11 2 2 "experimental" 120 "s" "s.bmp" "u" "u.bmp" "STANDING" 4 671 "s" "s" 1
11 2 2 "experimental" 121 "h" "h.bmp" "e" "e.bmp" "STANDING" 8 829 "h" "h" 1
11 2 2 "experimental" 122 "h" "h.bmp" "u" "u.bmp" "STANDING" 4 752 "h" "h" 1
11 2 2 "experimental" 123 "h" "h.bmp" "u" "u.bmp" "STANDING" 8 878 "h" "h" 1
11 2 2 "experimental" 124 "s" "s.bmp" "e" "e.bmp" "STANDING" 4 612 "s" "s" 1
11 2 2 "experimental" 125 "s" "s.bmp" "e" "e.bmp" "STANDING" 8 830 "s" "s" 1
11 2 2 "experimental" 126 "s" "s.bmp" "u" "u.bmp" "STANDING" 4 871 "s" "s" 1
11 2 2 "experimental" 127 "s" "s.bmp" "u" "u.bmp" "STANDING" 8 735 "s" "s" 1
11 2 2 "experimental" 128 "h" "h.bmp" "e" "e.bmp" "STANDING" 4 953 "h" "h" 1
11 2 3 "experimental" 1 "s" "s.bmp" "u" "u.bmp" "SITTING" 8 748 "s" "s" 1
11 2 3 "experimental" 2 "h" "h.bmp" "u" "u.bmp" "SITTING" 4 585 "h" "h" 1
11 2 3 "experimental" 3 "h" "h.bmp" "e" "e.bmp" "SITTING" 4 654 "h" "h" 1
11 2 3 "experimental" 4 "h" "h.bmp" "u" "u.bmp" "SITTING" 8 1126 "h" "h" 1
11 2 3 "experimental" 5 "s" "s.bmp" "u" "u.bmp" "SITTING" 4 685 "s" "s" 1
11 2 3 "experimental" 6 "s" "s.bmp" "e" "e.bmp" "SITTING" 4 794 "s" "s" 1
11 2 3 "experimental" 7 "s" "s.bmp" "e" "e.bmp" "SITTING" 8 702 "s" "s" 1
11 2 3 "experimental" 8 "h" "h.bmp" "e" "e.bmp" "SITTING" 8 694 "h" "h" 1
11 2 3 "experimental" 9 "h" "h.bmp" "u" "u.bmp" "SITTING" 8 828 "h" "h" 1
11 2 3 "experimental" 10 "s" "s.bmp" "u" "u.bmp" "SITTING" 8 708 "s" "s" 1
11 2 3 "experimental" 11 "s" "s.bmp" "e" "e.bmp" "SITTING" 8 996 "s" "s" 1
11 2 3 "experimental" 12 "s" "s.bmp" "e" "e.bmp" "SITTING" 4 751 "s" "s" 1
11 2 3 "experimental" 13 "s" "s.bmp" "u" "u.bmp" "SITTING" 4 677 "s" "s" 1
11 2 3 "experimental" 14 "h" "h.bmp" "e" "e.bmp" "SITTING" 8 867 "h" "h" 1
11 2 3 "experimental" 15 "h" "h.bmp" "u" "u.bmp" "SITTING" 4 1107 "h" "h" 1
11 2 3 "experimental" 16 "h" "h.bmp" "e" "e.bmp" "SITTING" 4 784 "h" "h" 1
11 2 3 "experimental" 17 "h" "h.bmp" "u" "u.bmp" "SITTING" 8 827 "h" "h" 1
11 2 3 "experimental" 18 "h" "h.bmp" "e" "e.bmp" "SITTING" 4 725 "h" "h" 1
11 2 3 "experimental" 19 "s" "s.bmp" "u" "u.bmp" "SITTING" 8 914 "s" "s" 1
11 2 3 "experimental" 20 "h" "h.bmp" "e" "e.bmp" "SITTING" 8 982 "h" "h" 1
11 2 3 "experimental" 21 "s" "s.bmp" "e" "e.bmp" "SITTING" 8 808 "s" "s" 1
11 2 3 "experimental" 22 "s" "s.bmp" "e" "e.bmp" "SITTING" 4 719 "s" "s" 1
11 2 3 "experimental" 23 "h" "h.bmp" "u" "u.bmp" "SITTING" 4 672 "h" "h" 1
11 2 3 "experimental" 24 "s" "s.bmp" "u" "u.bmp" "SITTING" 4 658 "s" "s" 1
11 2 3 "experimental" 25 "s" "s.bmp" "e" "e.bmp" "SITTING" 4 1083 "s" "s" 1
11 2 3 "experimental" 26 "s" "s.bmp" "u" "u.bmp" "SITTING" 4 587 "s" "s" 1
11 2 3 "experimental" 27 "h" "h.bmp" "u" "u.bmp" "SITTING" 4 1569 "h" "h" 1
11 2 3 "experimental" 28 "s" "s.bmp" "u" "u.bmp" "SITTING" 8 618 "s" "s" 1
11 2 3 "experimental" 29 "h" "h.bmp" "e" "e.bmp" "SITTING" 4 654 "h" "h" 1
11 2 3 "experimental" 30 "s" "s.bmp" "e" "e.bmp" "SITTING" 8 707 "s" "s" 1
11 2 3 "experimental" 31 "h" "h.bmp" "u" "u.bmp" "SITTING" 8 718 "h" "h" 1
11 2 3 "experimental" 32 "h" "h.bmp" "e" "e.bmp" "SITTING" 8 983 "h" "h" 1
11 2 3 "experimental" 33 "s" "s.bmp" "u" "u.bmp" "SITTING" 4 862 "s" "s" 1
11 2 3 "experimental" 34 "s" "s.bmp" "e" "e.bmp" "SITTING" 8 1012 "s" "s" 1
11 2 3 "experimental" 35 "s" "s.bmp" "e" "e.bmp" "SITTING" 4 658 "s" "s" 1
11 2 3 "experimental" 36 "s" "s.bmp" "u" "u.bmp" "SITTING" 8 547 "s" "s" 1
11 2 3 "experimental" 37 "h" "h.bmp" "u" "u.bmp" "SITTING" 8 602 "s" "h" 0
11 2 3 "experimental" 38 "h" "h.bmp" "u" "u.bmp" "SITTING" 4 744 "h" "h" 1
11 2 3 "experimental" 39 "h" "h.bmp" "e" "e.bmp" "SITTING" 8 685 "h" "h" 1
11 2 3 "experimental" 40 "h" "h.bmp" "e" "e.bmp" "SITTING" 4 771 "h" "h" 1
11 2 3 "experimental" 41 "h" "h.bmp" "u" "u.bmp" "SITTING" 8 620 "h" "h" 1
11 2 3 "experimental" 42 "s" "s.bmp" "u" "u.bmp" "SITTING" 8 679 "s" "s" 1
11 2 3 "experimental" 43 "h" "h.bmp" "e" "e.bmp" "SITTING" 8 995 "h" "h" 1
11 2 3 "experimental" 44 "s" "s.bmp" "e" "e.bmp" "SITTING" 8 694 "s" "s" 1
11 2 3 "experimental" 45 "s" "s.bmp" "u" "u.bmp" "SITTING" 4 715 "s" "s" 1
11 2 3 "experimental" 46 "h" "h.bmp" "u" "u.bmp" "SITTING" 4 821 "h" "h" 1
11 2 3 "experimental" 47 "s" "s.bmp" "e" "e.bmp" "SITTING" 4 1069 "s" "s" 1
11 2 3 "experimental" 48 "h" "h.bmp" "e" "e.bmp" "SITTING" 4 661 "h" "h" 1
11 2 3 "experimental" 49 "h" "h.bmp" "u" "u.bmp" "SITTING" 8 822 "h" "h" 1
11 2 3 "experimental" 50 "s" "s.bmp" "u" "u.bmp" "SITTING" 8 540 "s" "s" 1
11 2 3 "experimental" 51 "s" "s.bmp" "u" "u.bmp" "SITTING" 4 723 "s" "s" 1
11 2 3 "experimental" 52 "s" "s.bmp" "e" "e.bmp" "SITTING" 4 812 "s" "s" 1
11 2 3 "experimental" 53 "h" "h.bmp" "e" "e.bmp" "SITTING" 4 768 "h" "h" 1
11 2 3 "experimental" 54 "h" "h.bmp" "u" "u.bmp" "SITTING" 4 618 "h" "h" 1
11 2 3 "experimental" 55 "h" "h.bmp" "e" "e.bmp" "SITTING" 8 740 "h" "h" 1
11 2 3 "experimental" 56 "s" "s.bmp" "e" "e.bmp" "SITTING" 8 1668 "s" "s" 1
11 2 3 "experimental" 57 "h" "h.bmp" "e" "e.bmp" "SITTING" 8 867 "h" "h" 1
11 2 3 "experimental" 58 "s" "s.bmp" "u" "u.bmp" "SITTING" 4 709 "s" "s" 1
11 2 3 "experimental" 59 "h" "h.bmp" "u" "u.bmp" "SITTING" 8 795 "h" "h" 1
11 2 3 "experimental" 60 "s" "s.bmp" "e" "e.bmp" "SITTING" 8 905 "s" "s" 1
11 2 3 "experimental" 61 "s" "s.bmp" "e" "e.bmp" "SITTING" 4 646 "s" "s" 1
11 2 3 "experimental" 62 "h" "h.bmp" "e" "e.bmp" "SITTING" 4 716 "h" "h" 1
11 2 3 "experimental" 63 "h" "h.bmp" "u" "u.bmp" "SITTING" 4 1766 "h" "h" 1
11 2 3 "experimental" 64 "s" "s.bmp" "u" "u.bmp" "SITTING" 8 636 "s" "s" 1
11 2 3 "experimental" 65 "h" "h.bmp" "u" "u.bmp" "SITTING" 4 684 "h" "h" 1
11 2 3 "experimental" 66 "s" "s.bmp" "e" "e.bmp" "SITTING" 4 613 "s" "s" 1
11 2 3 "experimental" 67 "s" "s.bmp" "u" "u.bmp" "SITTING" 4 654 "s" "s" 1
11 2 3 "experimental" 68 "h" "h.bmp" "u" "u.bmp" "SITTING" 8 609 "h" "h" 1
11 2 3 "experimental" 69 "s" "s.bmp" "u" "u.bmp" "SITTING" 8 743 "s" "s" 1
11 2 3 "experimental" 70 "s" "s.bmp" "e" "e.bmp" "SITTING" 8 604 "s" "s" 1
11 2 3 "experimental" 71 "h" "h.bmp" "e" "e.bmp" "SITTING" 4 592 "h" "h" 1
11 2 3 "experimental" 72 "h" "h.bmp" "e" "e.bmp" "SITTING" 8 822 "h" "h" 1
11 2 3 "experimental" 73 "h" "h.bmp" "u" "u.bmp" "SITTING" 8 711 "h" "h" 1
11 2 3 "experimental" 74 "h" "h.bmp" "e" "e.bmp" "SITTING" 4 632 "h" "h" 1
11 2 3 "experimental" 75 "s" "s.bmp" "u" "u.bmp" "SITTING" 4 607 "s" "s" 1
11 2 3 "experimental" 76 "s" "s.bmp" "u" "u.bmp" "SITTING" 8 703 "s" "s" 1
11 2 3 "experimental" 77 "h" "h.bmp" "e" "e.bmp" "SITTING" 8 789 "h" "h" 1
11 2 3 "experimental" 78 "s" "s.bmp" "e" "e.bmp" "SITTING" 8 610 "s" "s" 1
11 2 3 "experimental" 79 "h" "h.bmp" "u" "u.bmp" "SITTING" 4 674 "h" "h" 1
11 2 3 "experimental" 80 "s" "s.bmp" "e" "e.bmp" "SITTING" 4 854 "s" "s" 1
11 2 3 "experimental" 81 "s" "s.bmp" "u" "u.bmp" "SITTING" 8 1204 "s" "s" 1
11 2 3 "experimental" 82 "h" "h.bmp" "u" "u.bmp" "SITTING" 8 895 "h" "h" 1
11 2 3 "experimental" 83 "h" "h.bmp" "e" "e.bmp" "SITTING" 8 811 "h" "h" 1
11 2 3 "experimental" 84 "s" "s.bmp" "u" "u.bmp" "SITTING" 4 698 "s" "s" 1
11 2 3 "experimental" 85 "s" "s.bmp" "e" "e.bmp" "SITTING" 4 695 "s" "s" 1
11 2 3 "experimental" 86 "h" "h.bmp" "e" "e.bmp" "SITTING" 4 1463 "h" "h" 1
11 2 3 "experimental" 87 "s" "s.bmp" "e" "e.bmp" "SITTING" 8 599 "s" "s" 1
11 2 3 "experimental" 88 "h" "h.bmp" "u" "u.bmp" "SITTING" 4 561 "h" "h" 1
11 2 3 "experimental" 89 "s" "s.bmp" "u" "u.bmp" "SITTING" 4 624 "s" "s" 1
11 2 3 "experimental" 90 "s" "s.bmp" "e" "e.bmp" "SITTING" 4 811 "s" "s" 1
11 2 3 "experimental" 91 "h" "h.bmp" "e" "e.bmp" "SITTING" 8 623 "h" "h" 1
11 2 3 "experimental" 92 "h" "h.bmp" "u" "u.bmp" "SITTING" 8 987 "h" "h" 1
11 2 3 "experimental" 93 "h" "h.bmp" "e" "e.bmp" "SITTING" 4 725 "h" "h" 1
11 2 3 "experimental" 94 "h" "h.bmp" "u" "u.bmp" "SITTING" 4 543 "h" "h" 1
11 2 3 "experimental" 95 "s" "s.bmp" "e" "e.bmp" "SITTING" 8 688 "s" "s" 1
11 2 3 "experimental" 96 "s" "s.bmp" "u" "u.bmp" "SITTING" 8 1276 "s" "s" 1
11 2 3 "experimental" 97 "h" "h.bmp" "e" "e.bmp" "SITTING" 8 753 "h" "h" 1
11 2 3 "experimental" 98 "h" "h.bmp" "u" "u.bmp" "SITTING" 4 679 "h" "h" 1
11 2 3 "experimental" 99 "s" "s.bmp" "e" "e.bmp" "SITTING" 8 564 "s" "s" 1
11 2 3 "experimental" 100 "s" "s.bmp" "e" "e.bmp" "SITTING" 4 566 "s" "s" 1
11 2 3 "experimental" 101 "h" "h.bmp" "u" "u.bmp" "SITTING" 8 776 "h" "h" 1
11 2 3 "experimental" 102 "h" "h.bmp" "e" "e.bmp" "SITTING" 4 738 "s" "h" 0
11 2 3 "experimental" 103 "s" "s.bmp" "u" "u.bmp" "SITTING" 4 982 "s" "s" 1
11 2 3 "experimental" 104 "s" "s.bmp" "u" "u.bmp" "SITTING" 8 1134 "s" "s" 1
11 2 3 "experimental" 105 "s" "s.bmp" "e" "e.bmp" "SITTING" 8 990 "s" "s" 1
11 2 3 "experimental" 106 "h" "h.bmp" "u" "u.bmp" "SITTING" 8 739 "h" "h" 1
11 2 3 "experimental" 107 "h" "h.bmp" "e" "e.bmp" "SITTING" 8 895 "h" "h" 1
11 2 3 "experimental" 108 "h" "h.bmp" "u" "u.bmp" "SITTING" 4 780 "h" "h" 1
11 2 3 "experimental" 109 "s" "s.bmp" "e" "e.bmp" "SITTING" 4 706 "s" "s" 1
11 2 3 "experimental" 110 "s" "s.bmp" "u" "u.bmp" "SITTING" 8 706 "s" "s" 1
11 2 3 "experimental" 111 "h" "h.bmp" "e" "e.bmp" "SITTING" 4 630 "h" "h" 1
11 2 3 "experimental" 112 "s" "s.bmp" "u" "u.bmp" "SITTING" 4 1007 "s" "s" 1
11 2 3 "experimental" 113 "h" "h.bmp" "e" "e.bmp" "SITTING" 4 762 "h" "h" 1
11 2 3 "experimental" 114 "h" "h.bmp" "u" "u.bmp" "SITTING" 4 722 "h" "h" 1
11 2 3 "experimental" 115 "s" "s.bmp" "u" "u.bmp" "SITTING" 8 1159 "s" "s" 1
11 2 3 "experimental" 116 "s" "s.bmp" "e" "e.bmp" "SITTING" 8 748 "s" "s" 1
11 2 3 "experimental" 117 "s" "s.bmp" "e" "e.bmp" "SITTING" 4 882 "s" "s" 1
11 2 3 "experimental" 118 "h" "h.bmp" "e" "e.bmp" "SITTING" 8 708 "h" "h" 1
11 2 3 "experimental" 119 "h" "h.bmp" "u" "u.bmp" "SITTING" 8 892 "h" "h" 1
11 2 3 "experimental" 120 "s" "s.bmp" "u" "u.bmp" "SITTING" 4 711 "s" "s" 1
11 2 3 "experimental" 121 "s" "s.bmp" "e" "e.bmp" "SITTING" 8 806 "s" "s" 1
11 2 3 "experimental" 122 "s" "s.bmp" "u" "u.bmp" "SITTING" 4 749 "s" "s" 1
11 2 3 "experimental" 123 "h" "h.bmp" "u" "u.bmp" "SITTING" 8 733 "h" "h" 1
11 2 3 "experimental" 124 "s" "s.bmp" "u" "u.bmp" "SITTING" 8 607 "s" "s" 1
11 2 3 "experimental" 125 "s" "s.bmp" "e" "e.bmp" "SITTING" 4 807 "s" "s" 1
11 2 3 "experimental" 126 "h" "h.bmp" "u" "u.bmp" "SITTING" 4 736 "h" "h" 1
11 2 3 "experimental" 127 "h" "h.bmp" "e" "e.bmp" "SITTING" 8 733 "h" "h" 1
11 2 3 "experimental" 128 "h" "h.bmp" "e" "e.bmp" "SITTING" 4 585 "h" "h" 1
12 2 2 "experimental" 1 "h" "h.bmp" "u" "u.bmp" "STANDING" 8 1054 "h" "h" 1
12 2 2 "experimental" 2 "s" "s.bmp" "u" "u.bmp" "STANDING" 4 611 "s" "s" 1
12 2 2 "experimental" 3 "s" "s.bmp" "e" "e.bmp" "STANDING" 8 1004 "s" "s" 1
12 2 2 "experimental" 4 "s" "s.bmp" "u" "u.bmp" "STANDING" 8 585 "s" "s" 1
12 2 2 "experimental" 5 "s" "s.bmp" "e" "e.bmp" "STANDING" 4 718 "s" "s" 1
12 2 2 "experimental" 6 "h" "h.bmp" "e" "e.bmp" "STANDING" 4 737 "h" "h" 1
12 2 2 "experimental" 7 "h" "h.bmp" "u" "u.bmp" "STANDING" 4 701 "h" "h" 1
12 2 2 "experimental" 8 "h" "h.bmp" "e" "e.bmp" "STANDING" 8 980 "h" "h" 1
12 2 2 "experimental" 9 "h" "h.bmp" "e" "e.bmp" "STANDING" 4 653 "h" "h" 1
12 2 2 "experimental" 10 "s" "s.bmp" "e" "e.bmp" "STANDING" 8 810 "s" "s" 1
12 2 2 "experimental" 11 "h" "h.bmp" "u" "u.bmp" "STANDING" 8 788 "h" "h" 1
12 2 2 "experimental" 12 "h" "h.bmp" "e" "e.bmp" "STANDING" 8 599 "h" "h" 1
12 2 2 "experimental" 13 "s" "s.bmp" "e" "e.bmp" "STANDING" 4 842 "s" "s" 1
12 2 2 "experimental" 14 "s" "s.bmp" "u" "u.bmp" "STANDING" 8 766 "s" "s" 1
12 2 2 "experimental" 15 "s" "s.bmp" "u" "u.bmp" "STANDING" 4 542 "s" "s" 1
12 2 2 "experimental" 16 "h" "h.bmp" "u" "u.bmp" "STANDING" 4 819 "h" "h" 1
12 2 2 "experimental" 17 "h" "h.bmp" "e" "e.bmp" "STANDING" 4 893 "s" "h" 0
12 2 2 "experimental" 18 "h" "h.bmp" "e" "e.bmp" "STANDING" 8 1792 "h" "h" 1
12 2 2 "experimental" 19 "h" "h.bmp" "u" "u.bmp" "STANDING" 8 980 "h" "h" 1
12 2 2 "experimental" 20 "s" "s.bmp" "u" "u.bmp" "STANDING" 4 1557 "s" "s" 1
12 2 2 "experimental" 21 "s" "s.bmp" "e" "e.bmp" "STANDING" 4 637 "s" "s" 1
12 2 2 "experimental" 22 "s" "s.bmp" "u" "u.bmp" "STANDING" 8 1058 "s" "s" 1
12 2 2 "experimental" 23 "h" "h.bmp" "u" "u.bmp" "STANDING" 4 784 "h" "h" 1
12 2 2 "experimental" 24 "s" "s.bmp" "e" "e.bmp" "STANDING" 8 930 "s" "s" 1
12 2 2 "experimental" 25 "h" "h.bmp" "u" "u.bmp" "STANDING" 8 1053 "h" "h" 1
12 2 2 "experimental" 26 "s" "s.bmp" "u" "u.bmp" "STANDING" 4 703 "s" "s" 1
12 2 2 "experimental" 27 "s" "s.bmp" "e" "e.bmp" "STANDING" 4 646 "s" "s" 1
12 2 2 "experimental" 28 "s" "s.bmp" "e" "e.bmp" "STANDING" 8 910 "s" "s" 1
12 2 2 "experimental" 29 "h" "h.bmp" "e" "e.bmp" "STANDING" 8 672 "h" "h" 1
12 2 2 "experimental" 30 "h" "h.bmp" "u" "u.bmp" "STANDING" 4 1010 "h" "h" 1
12 2 2 "experimental" 31 "s" "s.bmp" "u" "u.bmp" "STANDING" 8 899 "s" "s" 1
12 2 2 "experimental" 32 "h" "h.bmp" "e" "e.bmp" "STANDING" 4 1060 "h" "h" 1
12 2 2 "experimental" 33 "s" "s.bmp" "e" "e.bmp" "STANDING" 4 788 "s" "s" 1
12 2 2 "experimental" 34 "s" "s.bmp" "u" "u.bmp" "STANDING" 8 648 "s" "s" 1
12 2 2 "experimental" 35 "h" "h.bmp" "u" "u.bmp" "STANDING" 4 1108 "h" "h" 1
12 2 2 "experimental" 36 "h" "h.bmp" "u" "u.bmp" "STANDING" 8 698 "h" "h" 1
12 2 2 "experimental" 37 "s" "s.bmp" "e" "e.bmp" "STANDING" 8 768 "s" "s" 1
12 2 2 "experimental" 38 "h" "h.bmp" "e" "e.bmp" "STANDING" 4 666 "h" "h" 1
12 2 2 "experimental" 39 "s" "s.bmp" "u" "u.bmp" "STANDING" 4 1043 "s" "s" 1
12 2 2 "experimental" 40 "h" "h.bmp" "e" "e.bmp" "STANDING" 8 789 "h" "h" 1
12 2 2 "experimental" 41 "s" "s.bmp" "u" "u.bmp" "STANDING" 8 874 "s" "s" 1
12 2 2 "experimental" 42 "s" "s.bmp" "e" "e.bmp" "STANDING" 4 762 "s" "s" 1
12 2 2 "experimental" 43 "h" "h.bmp" "u" "u.bmp" "STANDING" 4 581 "h" "h" 1
12 2 2 "experimental" 44 "h" "h.bmp" "u" "u.bmp" "STANDING" 8 721 "h" "h" 1
12 2 2 "experimental" 45 "s" "s.bmp" "u" "u.bmp" "STANDING" 4 729 "s" "s" 1
12 2 2 "experimental" 46 "h" "h.bmp" "e" "e.bmp" "STANDING" 8 1212 "s" "h" 0
12 2 2 "experimental" 47 "h" "h.bmp" "e" "e.bmp" "STANDING" 4 1483 "h" "h" 1
12 2 2 "experimental" 48 "s" "s.bmp" "e" "e.bmp" "STANDING" 8 1644 "s" "s" 1
12 2 2 "experimental" 49 "h" "h.bmp" "u" "u.bmp" "STANDING" 4 725 "h" "h" 1
12 2 2 "experimental" 50 "h" "h.bmp" "u" "u.bmp" "STANDING" 8 760 "h" "h" 1
12 2 2 "experimental" 51 "s" "s.bmp" "e" "e.bmp" "STANDING" 4 530 "s" "s" 1
12 2 2 "experimental" 52 "s" "s.bmp" "u" "u.bmp" "STANDING" 4 743 "s" "s" 1
12 2 2 "experimental" 53 "s" "s.bmp" "u" "u.bmp" "STANDING" 8 1132 "s" "s" 1
12 2 2 "experimental" 54 "h" "h.bmp" "e" "e.bmp" "STANDING" 4 674 "h" "h" 1
12 2 2 "experimental" 55 "s" "s.bmp" "e" "e.bmp" "STANDING" 8 734 "s" "s" 1
12 2 2 "experimental" 56 "h" "h.bmp" "e" "e.bmp" "STANDING" 8 489 "h" "h" 1
12 2 2 "experimental" 57 "h" "h.bmp" "e" "e.bmp" "STANDING" 4 1048 "h" "h" 1
12 2 2 "experimental" 58 "h" "h.bmp" "e" "e.bmp" "STANDING" 8 651 "h" "h" 1
12 2 2 "experimental" 59 "h" "h.bmp" "u" "u.bmp" "STANDING" 8 628 "h" "h" 1
12 2 2 "experimental" 60 "s" "s.bmp" "e" "e.bmp" "STANDING" 4 806 "s" "s" 1
12 2 2 "experimental" 61 "s" "s.bmp" "e" "e.bmp" "STANDING" 8 1412 "s" "s" 1
12 2 2 "experimental" 62 "h" "h.bmp" "u" "u.bmp" "STANDING" 4 776 "h" "h" 1
12 2 2 "experimental" 63 "s" "s.bmp" "u" "u.bmp" "STANDING" 8 856 "s" "s" 1
12 2 2 "experimental" 64 "s" "s.bmp" "u" "u.bmp" "STANDING" 4 1342 "s" "s" 1
12 2 2 "experimental" 65 "s" "s.bmp" "u" "u.bmp" "STANDING" 8 741 "s" "s" 1
12 2 2 "experimental" 66 "h" "h.bmp" "e" "e.bmp" "STANDING" 8 822 "h" "h" 1
12 2 2 "experimental" 67 "s" "s.bmp" "e" "e.bmp" "STANDING" 4 835 "s" "s" 1
12 2 2 "experimental" 68 "s" "s.bmp" "e" "e.bmp" "STANDING" 8 725 "s" "s" 1
12 2 2 "experimental" 69 "h" "h.bmp" "u" "u.bmp" "STANDING" 4 708 "h" "h" 1
12 2 2 "experimental" 70 "h" "h.bmp" "e" "e.bmp" "STANDING" 4 780 "h" "h" 1
12 2 2 "experimental" 71 "h" "h.bmp" "u" "u.bmp" "STANDING" 8 1007 "h" "h" 1
12 2 2 "experimental" 72 "s" "s.bmp" "u" "u.bmp" "STANDING" 4 726 "s" "s" 1
12 2 2 "experimental" 73 "s" "s.bmp" "e" "e.bmp" "STANDING" 8 1568 "s" "s" 1
12 2 2 "experimental" 74 "s" "s.bmp" "u" "u.bmp" "STANDING" 8 970 "s" "s" 1
12 2 2 "experimental" 75 "h" "h.bmp" "e" "e.bmp" "STANDING" 4 617 "h" "h" 1
12 2 2 "experimental" 76 "s" "s.bmp" "e" "e.bmp" "STANDING" 4 739 "s" "s" 1
12 2 2 "experimental" 77 "h" "h.bmp" "e" "e.bmp" "STANDING" 8 720 "h" "h" 1
12 2 2 "experimental" 78 "h" "h.bmp" "u" "u.bmp" "STANDING" 4 650 "h" "h" 1
12 2 2 "experimental" 79 "h" "h.bmp" "u" "u.bmp" "STANDING" 8 770 "h" "h" 1
12 2 2 "experimental" 80 "s" "s.bmp" "u" "u.bmp" "STANDING" 4 482 "s" "s" 1
12 2 2 "experimental" 81 "h" "h.bmp" "u" "u.bmp" "STANDING" 8 1073 "h" "h" 1
12 2 2 "experimental" 82 "s" "s.bmp" "u" "u.bmp" "STANDING" 8 893 "s" "s" 1
12 2 2 "experimental" 83 "s" "s.bmp" "u" "u.bmp" "STANDING" 4 633 "s" "s" 1
12 2 2 "experimental" 84 "h" "h.bmp" "e" "e.bmp" "STANDING" 8 738 "h" "h" 1
12 2 2 "experimental" 85 "h" "h.bmp" "e" "e.bmp" "STANDING" 4 858 "s" "h" 0
12 2 2 "experimental" 86 "h" "h.bmp" "u" "u.bmp" "STANDING" 4 1028 "h" "h" 1
12 2 2 "experimental" 87 "s" "s.bmp" "e" "e.bmp" "STANDING" 4 1271 "s" "s" 1
12 2 2 "experimental" 88 "s" "s.bmp" "e" "e.bmp" "STANDING" 8 931 "s" "s" 1
12 2 2 "experimental" 89 "h" "h.bmp" "u" "u.bmp" "STANDING" 8 531 "h" "h" 1
12 2 2 "experimental" 90 "h" "h.bmp" "u" "u.bmp" "STANDING" 4 1112 "h" "h" 1
12 2 2 "experimental" 91 "h" "h.bmp" "e" "e.bmp" "STANDING" 4 2302 "h" "h" 1
12 2 2 "experimental" 92 "h" "h.bmp" "e" "e.bmp" "STANDING" 8 1053 "h" "h" 1
12 2 2 "experimental" 93 "s" "s.bmp" "e" "e.bmp" "STANDING" 4 819 "s" "s" 1
12 2 2 "experimental" 94 "s" "s.bmp" "u" "u.bmp" "STANDING" 4 698 "s" "s" 1
12 2 2 "experimental" 95 "s" "s.bmp" "u" "u.bmp" "STANDING" 8 906 "s" "s" 1
12 2 2 "experimental" 96 "s" "s.bmp" "e" "e.bmp" "STANDING" 8 606 "s" "s" 1
12 2 2 "experimental" 97 "h" "h.bmp" "u" "u.bmp" "STANDING" 4 712 "h" "h" 1
12 2 2 "experimental" 98 "s" "s.bmp" "u" "u.bmp" "STANDING" 4 911 "s" "s" 1
12 2 2 "experimental" 99 "h" "h.bmp" "u" "u.bmp" "STANDING" 8 656 "h" "h" 1
12 2 2 "experimental" 100 "s" "s.bmp" "e" "e.bmp" "STANDING" 8 1557 "s" "s" 1
12 2 2 "experimental" 101 "h" "h.bmp" "e" "e.bmp" "STANDING" 8 1816 "h" "h" 1
12 2 2 "experimental" 102 "s" "s.bmp" "u" "u.bmp" "STANDING" 8 691 "s" "s" 1
12 2 2 "experimental" 103 "h" "h.bmp" "e" "e.bmp" "STANDING" 4 668 "h" "h" 1
12 2 2 "experimental" 104 "s" "s.bmp" "e" "e.bmp" "STANDING" 4 681 "s" "s" 1
12 2 2 "experimental" 105 "s" "s.bmp" "u" "u.bmp" "STANDING" 4 1068 "s" "s" 1
12 2 2 "experimental" 106 "h" "h.bmp" "e" "e.bmp" "STANDING" 8 745 "h" "h" 1
12 2 2 "experimental" 107 "h" "h.bmp" "e" "e.bmp" "STANDING" 4 631 "h" "h" 1
12 2 2 "experimental" 108 "s" "s.bmp" "u" "u.bmp" "STANDING" 8 508 "s" "s" 1
12 2 2 "experimental" 109 "h" "h.bmp" "u" "u.bmp" "STANDING" 4 541 "h" "h" 1
12 2 2 "experimental" 110 "h" "h.bmp" "u" "u.bmp" "STANDING" 8 748 "h" "h" 1
12 2 2 "experimental" 111 "s" "s.bmp" "e" "e.bmp" "STANDING" 4 538 "s" "s" 1
12 2 2 "experimental" 112 "s" "s.bmp" "e" "e.bmp" "STANDING" 8 625 "s" "s" 1
12 2 2 "experimental" 113 "s" "s.bmp" "e" "e.bmp" "STANDING" 4 660 "s" "s" 1
12 2 2 "experimental" 114 "h" "h.bmp" "u" "u.bmp" "STANDING" 4 702 "h" "h" 1
12 2 2 "experimental" 115 "h" "h.bmp" "e" "e.bmp" "STANDING" 4 653 "h" "h" 1
12 2 2 "experimental" 116 "h" "h.bmp" "u" "u.bmp" "STANDING" 8 596 "h" "h" 1
12 2 2 "experimental" 117 "h" "h.bmp" "e" "e.bmp" "STANDING" 8 1012 "h" "h" 1
12 2 2 "experimental" 118 "s" "s.bmp" "u" "u.bmp" "STANDING" 8 703 "s" "s" 1
12 2 2 "experimental" 119 "s" "s.bmp" "e" "e.bmp" "STANDING" 8 862 "s" "s" 1
12 2 2 "experimental" 120 "s" "s.bmp" "u" "u.bmp" "STANDING" 4 533 "s" "s" 1
12 2 2 "experimental" 121 "h" "h.bmp" "u" "u.bmp" "STANDING" 8 847 "h" "h" 1
12 2 2 "experimental" 122 "s" "s.bmp" "e" "e.bmp" "STANDING" 4 655 "s" "s" 1
12 2 2 "experimental" 123 "h" "h.bmp" "e" "e.bmp" "STANDING" 4 995 "h" "h" 1
12 2 2 "experimental" 124 "s" "s.bmp" "u" "u.bmp" "STANDING" 8 577 "s" "s" 1
12 2 2 "experimental" 125 "s" "s.bmp" "u" "u.bmp" "STANDING" 4 798 "s" "s" 1
12 2 2 "experimental" 126 "h" "h.bmp" "u" "u.bmp" "STANDING" 4 498 "h" "h" 1
12 2 2 "experimental" 127 "s" "s.bmp" "e" "e.bmp" "STANDING" 8 764 "s" "s" 1
12 2 2 "experimental" 128 "h" "h.bmp" "e" "e.bmp" "STANDING" 8 620 "h" "h" 1
12 2 3 "experimental" 1 "h" "h.bmp" "e" "e.bmp" "SITTING" 8 649 "h" "h" 1
12 2 3 "experimental" 2 "s" "s.bmp" "e" "e.bmp" "SITTING" 4 561 "s" "s" 1
12 2 3 "experimental" 3 "s" "s.bmp" "e" "e.bmp" "SITTING" 8 523 "s" "s" 1
12 2 3 "experimental" 4 "h" "h.bmp" "u" "u.bmp" "SITTING" 4 1173 "h" "h" 1
12 2 3 "experimental" 5 "h" "h.bmp" "u" "u.bmp" "SITTING" 8 547 "h" "h" 1
12 2 3 "experimental" 6 "h" "h.bmp" "e" "e.bmp" "SITTING" 4 948 "h" "h" 1
12 2 3 "experimental" 7 "s" "s.bmp" "u" "u.bmp" "SITTING" 4 463 "s" "s" 1
12 2 3 "experimental" 8 "s" "s.bmp" "u" "u.bmp" "SITTING" 8 570 "s" "s" 1
12 2 3 "experimental" 9 "s" "s.bmp" "e" "e.bmp" "SITTING" 4 549 "s" "s" 1
12 2 3 "experimental" 10 "s" "s.bmp" "e" "e.bmp" "SITTING" 8 1437 "s" "s" 1
12 2 3 "experimental" 11 "s" "s.bmp" "u" "u.bmp" "SITTING" 4 563 "s" "s" 1
12 2 3 "experimental" 12 "h" "h.bmp" "u" "u.bmp" "SITTING" 8 750 "h" "h" 1
12 2 3 "experimental" 13 "h" "h.bmp" "e" "e.bmp" "SITTING" 8 870 "h" "h" 1
12 2 3 "experimental" 14 "s" "s.bmp" "u" "u.bmp" "SITTING" 8 1074 "s" "s" 1
12 2 3 "experimental" 15 "h" "h.bmp" "e" "e.bmp" "SITTING" 4 942 "h" "h" 1
12 2 3 "experimental" 16 "h" "h.bmp" "u" "u.bmp" "SITTING" 4 713 "h" "h" 1
12 2 3 "experimental" 17 "h" "h.bmp" "u" "u.bmp" "SITTING" 8 1411 "h" "h" 1
12 2 3 "experimental" 18 "h" "h.bmp" "e" "e.bmp" "SITTING" 8 941 "h" "h" 1
12 2 3 "experimental" 19 "s" "s.bmp" "u" "u.bmp" "SITTING" 4 914 "s" "s" 1
12 2 3 "experimental" 20 "h" "h.bmp" "e" "e.bmp" "SITTING" 4 815 "h" "h" 1
12 2 3 "experimental" 21 "s" "s.bmp" "e" "e.bmp" "SITTING" 8 745 "s" "s" 1
12 2 3 "experimental" 22 "s" "s.bmp" "u" "u.bmp" "SITTING" 8 750 "s" "s" 1
12 2 3 "experimental" 23 "s" "s.bmp" "e" "e.bmp" "SITTING" 4 788 "s" "s" 1
12 2 3 "experimental" 24 "h" "h.bmp" "u" "u.bmp" "SITTING" 4 622 "h" "h" 1
12 2 3 "experimental" 25 "h" "h.bmp" "e" "e.bmp" "SITTING" 8 1034 "h" "h" 1
12 2 3 "experimental" 26 "s" "s.bmp" "u" "u.bmp" "SITTING" 8 691 "s" "s" 1
12 2 3 "experimental" 27 "s" "s.bmp" "e" "e.bmp" "SITTING" 4 681 "s" "s" 1
12 2 3 "experimental" 28 "s" "s.bmp" "u" "u.bmp" "SITTING" 4 629 "s" "s" 1
12 2 3 "experimental" 29 "h" "h.bmp" "u" "u.bmp" "SITTING" 8 763 "h" "h" 1
12 2 3 "experimental" 30 "h" "h.bmp" "e" "e.bmp" "SITTING" 4 795 "h" "h" 1
12 2 3 "experimental" 31 "s" "s.bmp" "e" "e.bmp" "SITTING" 8 1357 "s" "s" 1
12 2 3 "experimental" 32 "h" "h.bmp" "u" "u.bmp" "SITTING" 4 682 "h" "h" 1
12 2 3 "experimental" 33 "s" "s.bmp" "e" "e.bmp" "SITTING" 4 786 "s" "s" 1
12 2 3 "experimental" 34 "h" "h.bmp" "u" "u.bmp" "SITTING" 4 578 "h" "h" 1
12 2 3 "experimental" 35 "s" "s.bmp" "e" "e.bmp" "SITTING" 8 649 "s" "s" 1
12 2 3 "experimental" 36 "h" "h.bmp" "e" "e.bmp" "SITTING" 8 694 "h" "h" 1
12 2 3 "experimental" 37 "s" "s.bmp" "u" "u.bmp" "SITTING" 8 734 "s" "s" 1
12 2 3 "experimental" 38 "h" "h.bmp" "e" "e.bmp" "SITTING" 4 735 "h" "h" 1
12 2 3 "experimental" 39 "s" "s.bmp" "u" "u.bmp" "SITTING" 4 622 "s" "s" 1
12 2 3 "experimental" 40 "h" "h.bmp" "u" "u.bmp" "SITTING" 8 640 "h" "h" 1
12 2 3 "experimental" 41 "h" "h.bmp" "u" "u.bmp" "SITTING" 4 614 "h" "h" 1
12 2 3 "experimental" 42 "h" "h.bmp" "e" "e.bmp" "SITTING" 4 599 "h" "h" 1
12 2 3 "experimental" 43 "s" "s.bmp" "u" "u.bmp" "SITTING" 8 503 "s" "s" 1
12 2 3 "experimental" 44 "s" "s.bmp" "u" "u.bmp" "SITTING" 4 799 "s" "s" 1
12 2 3 "experimental" 45 "h" "h.bmp" "e" "e.bmp" "SITTING" 8 1357 "h" "h" 1
12 2 3 "experimental" 46 "h" "h.bmp" "u" "u.bmp" "SITTING" 8 911 "h" "h" 1
12 2 3 "experimental" 47 "s" "s.bmp" "e" "e.bmp" "SITTING" 8 973 "s" "s" 1
12 2 3 "experimental" 48 "s" "s.bmp" "e" "e.bmp" "SITTING" 4 757 "s" "s" 1
12 2 3 "experimental" 49 "s" "s.bmp" "e" "e.bmp" "SITTING" 8 532 "s" "s" 1
12 2 3 "experimental" 50 "s" "s.bmp" "u" "u.bmp" "SITTING" 4 553 "s" "s" 1
12 2 3 "experimental" 51 "h" "h.bmp" "u" "u.bmp" "SITTING" 8 557 "h" "h" 1
12 2 3 "experimental" 52 "h" "h.bmp" "e" "e.bmp" "SITTING" 4 1062 "h" "h" 1
12 2 3 "experimental" 53 "s" "s.bmp" "u" "u.bmp" "SITTING" 8 912 "s" "s" 1
12 2 3 "experimental" 54 "s" "s.bmp" "e" "e.bmp" "SITTING" 4 674 "h" "s" 0
12 2 3 "experimental" 55 "h" "h.bmp" "e" "e.bmp" "SITTING" 8 1062 "h" "h" 1
12 2 3 "experimental" 56 "h" "h.bmp" "u" "u.bmp" "SITTING" 4 683 "h" "h" 1
12 2 3 "experimental" 57 "h" "h.bmp" "e" "e.bmp" "SITTING" 4 647 "h" "h" 1
12 2 3 "experimental" 58 "s" "s.bmp" "u" "u.bmp" "SITTING" 8 1064 "s" "s" 1
12 2 3 "experimental" 59 "s" "s.bmp" "u" "u.bmp" "SITTING" 4 589 "s" "s" 1
12 2 3 "experimental" 60 "s" "s.bmp" "e" "e.bmp" "SITTING" 4 707 "s" "s" 1
12 2 3 "experimental" 61 "h" "h.bmp" "e" "e.bmp" "SITTING" 8 1002 "h" "h" 1
12 2 3 "experimental" 62 "h" "h.bmp" "u" "u.bmp" "SITTING" 4 919 "h" "h" 1
12 2 3 "experimental" 63 "h" "h.bmp" "u" "u.bmp" "SITTING" 8 630 "h" "h" 1
12 2 3 "experimental" 64 "s" "s.bmp" "e" "e.bmp" "SITTING" 8 618 "s" "s" 1
12 2 3 "experimental" 65 "h" "h.bmp" "u" "u.bmp" "SITTING" 4 853 "h" "h" 1
12 2 3 "experimental" 66 "s" "s.bmp" "u" "u.bmp" "SITTING" 8 1074 "s" "s" 1
12 2 3 "experimental" 67 "h" "h.bmp" "u" "u.bmp" "SITTING" 8 843 "h" "h" 1
12 2 3 "experimental" 68 "s" "s.bmp" "e" "e.bmp" "SITTING" 4 565 "s" "s" 1
12 2 3 "experimental" 69 "s" "s.bmp" "u" "u.bmp" "SITTING" 4 695 "s" "s" 1
12 2 3 "experimental" 70 "h" "h.bmp" "e" "e.bmp" "SITTING" 4 464 "h" "h" 1
12 2 3 "experimental" 71 "h" "h.bmp" "e" "e.bmp" "SITTING" 8 1220 "h" "h" 1
12 2 3 "experimental" 72 "s" "s.bmp" "e" "e.bmp" "SITTING" 8 820 "s" "s" 1
12 2 3 "experimental" 73 "s" "s.bmp" "u" "u.bmp" "SITTING" 8 621 "s" "s" 1
12 2 3 "experimental" 74 "s" "s.bmp" "u" "u.bmp" "SITTING" 4 615 "s" "s" 1
12 2 3 "experimental" 75 "h" "h.bmp" "u" "u.bmp" "SITTING" 8 757 "h" "h" 1
12 2 3 "experimental" 76 "s" "s.bmp" "e" "e.bmp" "SITTING" 4 1223 "s" "s" 1
12 2 3 "experimental" 77 "h" "h.bmp" "e" "e.bmp" "SITTING" 4 1538 "h" "h" 1
12 2 3 "experimental" 78 "s" "s.bmp" "e" "e.bmp" "SITTING" 8 1257 "s" "s" 1
12 2 3 "experimental" 79 "h" "h.bmp" "u" "u.bmp" "SITTING" 4 610 "h" "h" 1
12 2 3 "experimental" 80 "h" "h.bmp" "e" "e.bmp" "SITTING" 8 1093 "h" "h" 1
12 2 3 "experimental" 81 "s" "s.bmp" "e" "e.bmp" "SITTING" 8 726 "s" "s" 1
12 2 3 "experimental" 82 "h" "h.bmp" "u" "u.bmp" "SITTING" 4 729 "h" "h" 1
12 2 3 "experimental" 83 "s" "s.bmp" "u" "u.bmp" "SITTING" 4 660 "s" "s" 1
12 2 3 "experimental" 84 "h" "h.bmp" "u" "u.bmp" "SITTING" 8 725 "h" "h" 1
12 2 3 "experimental" 85 "h" "h.bmp" "e" "e.bmp" "SITTING" 4 816 "h" "h" 1
12 2 3 "experimental" 86 "h" "h.bmp" "e" "e.bmp" "SITTING" 8 640 "h" "h" 1
12 2 3 "experimental" 87 "s" "s.bmp" "u" "u.bmp" "SITTING" 8 555 "s" "s" 1
12 2 3 "experimental" 88 "s" "s.bmp" "e" "e.bmp" "SITTING" 4 948 "s" "s" 1
12 2 3 "experimental" 89 "s" "s.bmp" "e" "e.bmp" "SITTING" 8 727 "s" "s" 1
12 2 3 "experimental" 90 "s" "s.bmp" "u" "u.bmp" "SITTING" 8 634 "s" "s" 1
12 2 3 "experimental" 91 "h" "h.bmp" "u" "u.bmp" "SITTING" 4 802 "h" "h" 1
12 2 3 "experimental" 92 "h" "h.bmp" "e" "e.bmp" "SITTING" 8 1098 "h" "h" 1
12 2 3 "experimental" 93 "s" "s.bmp" "e" "e.bmp" "SITTING" 4 1039 "s" "s" 1
12 2 3 "experimental" 94 "h" "h.bmp" "e" "e.bmp" "SITTING" 4 646 "h" "h" 1
12 2 3 "experimental" 95 "s" "s.bmp" "u" "u.bmp" "SITTING" 4 561 "s" "s" 1
12 2 3 "experimental" 96 "h" "h.bmp" "u" "u.bmp" "SITTING" 8 944 "h" "h" 1
12 2 3 "experimental" 97 "s" "s.bmp" "u" "u.bmp" "SITTING" 8 662 "s" "s" 1
12 2 3 "experimental" 98 "h" "h.bmp" "e" "e.bmp" "SITTING" 8 1389 "h" "h" 1
12 2 3 "experimental" 99 "s" "s.bmp" "e" "e.bmp" "SITTING" 8 941 "s" "s" 1
12 2 3 "experimental" 100 "h" "h.bmp" "u" "u.bmp" "SITTING" 4 647 "h" "h" 1
12 2 3 "experimental" 101 "h" "h.bmp" "u" "u.bmp" "SITTING" 8 901 "h" "h" 1
12 2 3 "experimental" 102 "s" "s.bmp" "u" "u.bmp" "SITTING" 4 619 "s" "s" 1
12 2 3 "experimental" 103 "s" "s.bmp" "e" "e.bmp" "SITTING" 4 581 "s" "s" 1
12 2 3 "experimental" 104 "h" "h.bmp" "e" "e.bmp" "SITTING" 4 756 "h" "h" 1
12 2 3 "experimental" 105 "s" "s.bmp" "u" "u.bmp" "SITTING" 8 859 "h" "s" 0
12 2 3 "experimental" 106 "h" "h.bmp" "e" "e.bmp" "SITTING" 4 1123 "h" "h" 1
12 2 3 "experimental" 107 "s" "s.bmp" "u" "u.bmp" "SITTING" 4 653 "s" "s" 1
12 2 3 "experimental" 108 "h" "h.bmp" "u" "u.bmp" "SITTING" 4 688 "h" "h" 1
12 2 3 "experimental" 109 "h" "h.bmp" "e" "e.bmp" "SITTING" 8 733 "h" "h" 1
12 2 3 "experimental" 110 "h" "h.bmp" "u" "u.bmp" "SITTING" 8 897 "h" "h" 1
12 2 3 "experimental" 111 "s" "s.bmp" "e" "e.bmp" "SITTING" 4 745 "s" "s" 1
12 2 3 "experimental" 112 "s" "s.bmp" "e" "e.bmp" "SITTING" 8 670 "s" "s" 1
12 2 3 "experimental" 113 "h" "h.bmp" "u" "u.bmp" "SITTING" 8 1102 "h" "h" 1
12 2 3 "experimental" 114 "h" "h.bmp" "e" "e.bmp" "SITTING" 4 1066 "s" "h" 0
12 2 3 "experimental" 115 "s" "s.bmp" "u" "u.bmp" "SITTING" 8 1271 "s" "s" 1
12 2 3 "experimental" 116 "h" "h.bmp" "u" "u.bmp" "SITTING" 4 779 "h" "h" 1
12 2 3 "experimental" 117 "s" "s.bmp" "u" "u.bmp" "SITTING" 4 814 "s" "s" 1
12 2 3 "experimental" 118 "s" "s.bmp" "e" "e.bmp" "SITTING" 4 566 "s" "s" 1
12 2 3 "experimental" 119 "h" "h.bmp" "e" "e.bmp" "SITTING" 8 1088 "h" "h" 1
12 2 3 "experimental" 120 "s" "s.bmp" "e" "e.bmp" "SITTING" 8 721 "s" "s" 1
12 2 3 "experimental" 121 "s" "s.bmp" "u" "u.bmp" "SITTING" 8 1379 "s" "s" 1
12 2 3 "experimental" 122 "s" "s.bmp" "u" "u.bmp" "SITTING" 4 695 "s" "s" 1
12 2 3 "experimental" 123 "s" "s.bmp" "e" "e.bmp" "SITTING" 4 661 "s" "s" 1
12 2 3 "experimental" 124 "h" "h.bmp" "u" "u.bmp" "SITTING" 8 816 "h" "h" 1
12 2 3 "experimental" 125 "h" "h.bmp" "e" "e.bmp" "SITTING" 8 1608 "h" "h" 1
12 2 3 "experimental" 126 "s" "s.bmp" "e" "e.bmp" "SITTING" 8 740 "s" "s" 1
12 2 3 "experimental" 127 "h" "h.bmp" "e" "e.bmp" "SITTING" 4 837 "h" "h" 1
12 2 3 "experimental" 128 "h" "h.bmp" "u" "u.bmp" "SITTING" 4 752 "h" "h" 1
13 1 2 "experimental" 1 "h" "h.bmp" "u" "u.bmp" "SITTING" 4 757 "h" "h" 1
13 1 2 "experimental" 2 "h" "h.bmp" "e" "e.bmp" "SITTING" 8 1285 "h" "h" 1
13 1 2 "experimental" 3 "s" "s.bmp" "u" "u.bmp" "SITTING" 8 592 "s" "s" 1
13 1 2 "experimental" 4 "s" "s.bmp" "u" "u.bmp" "SITTING" 4 1581 "s" "s" 1
13 1 2 "experimental" 5 "s" "s.bmp" "e" "e.bmp" "SITTING" 4 745 "s" "s" 1
13 1 2 "experimental" 6 "h" "h.bmp" "u" "u.bmp" "SITTING" 8 723 "h" "h" 1
13 1 2 "experimental" 7 "s" "s.bmp" "e" "e.bmp" "SITTING" 8 904 "s" "s" 1
13 1 2 "experimental" 8 "h" "h.bmp" "e" "e.bmp" "SITTING" 4 827 "h" "h" 1
13 1 2 "experimental" 9 "s" "s.bmp" "e" "e.bmp" "SITTING" 8 711 "s" "s" 1
13 1 2 "experimental" 10 "h" "h.bmp" "e" "e.bmp" "SITTING" 8 830 "h" "h" 1
13 1 2 "experimental" 11 "s" "s.bmp" "u" "u.bmp" "SITTING" 4 720 "s" "s" 1
13 1 2 "experimental" 12 "h" "h.bmp" "u" "u.bmp" "SITTING" 8 658 "h" "h" 1
13 1 2 "experimental" 13 "h" "h.bmp" "u" "u.bmp" "SITTING" 4 795 "h" "h" 1
13 1 2 "experimental" 14 "s" "s.bmp" "e" "e.bmp" "SITTING" 4 647 "s" "s" 1
13 1 2 "experimental" 15 "s" "s.bmp" "u" "u.bmp" "SITTING" 8 765 "s" "s" 1
13 1 2 "experimental" 16 "h" "h.bmp" "e" "e.bmp" "SITTING" 4 871 "h" "h" 1
13 1 2 "experimental" 17 "h" "h.bmp" "u" "u.bmp" "SITTING" 8 639 "h" "h" 1
13 1 2 "experimental" 18 "h" "h.bmp" "e" "e.bmp" "SITTING" 8 917 "h" "h" 1
13 1 2 "experimental" 19 "h" "h.bmp" "u" "u.bmp" "SITTING" 4 637 "h" "h" 1
13 1 2 "experimental" 20 "s" "s.bmp" "e" "e.bmp" "SITTING" 4 1015 "s" "s" 1
13 1 2 "experimental" 21 "s" "s.bmp" "e" "e.bmp" "SITTING" 8 717 "s" "s" 1
13 1 2 "experimental" 22 "s" "s.bmp" "u" "u.bmp" "SITTING" 8 630 "s" "s" 1
13 1 2 "experimental" 23 "s" "s.bmp" "u" "u.bmp" "SITTING" 4 594 "s" "s" 1
13 1 2 "experimental" 24 "h" "h.bmp" "e" "e.bmp" "SITTING" 4 742 "h" "h" 1
13 1 2 "experimental" 25 "s" "s.bmp" "e" "e.bmp" "SITTING" 8 622 "s" "s" 1
13 1 2 "experimental" 26 "s" "s.bmp" "e" "e.bmp" "SITTING" 4 657 "s" "s" 1
13 1 2 "experimental" 27 "h" "h.bmp" "u" "u.bmp" "SITTING" 4 864 "h" "h" 1
13 1 2 "experimental" 28 "s" "s.bmp" "u" "u.bmp" "SITTING" 8 689 "s" "s" 1
13 1 2 "experimental" 29 "h" "h.bmp" "u" "u.bmp" "SITTING" 8 660 "h" "h" 1
13 1 2 "experimental" 30 "h" "h.bmp" "e" "e.bmp" "SITTING" 4 693 "h" "h" 1
13 1 2 "experimental" 31 "s" "s.bmp" "u" "u.bmp" "SITTING" 4 699 "s" "s" 1
13 1 2 "experimental" 32 "h" "h.bmp" "e" "e.bmp" "SITTING" 8 1178 "h" "h" 1
13 1 2 "experimental" 33 "s" "s.bmp" "u" "u.bmp" "SITTING" 8 625 "s" "s" 1
13 1 2 "experimental" 34 "s" "s.bmp" "u" "u.bmp" "SITTING" 4 964 "s" "s" 1
13 1 2 "experimental" 35 "h" "h.bmp" "e" "e.bmp" "SITTING" 8 949 "h" "h" 1
13 1 2 "experimental" 36 "s" "s.bmp" "e" "e.bmp" "SITTING" 4 663 "s" "s" 1
13 1 2 "experimental" 37 "h" "h.bmp" "e" "e.bmp" "SITTING" 4 978 "h" "h" 1
13 1 2 "experimental" 38 "h" "h.bmp" "u" "u.bmp" "SITTING" 8 1195 "h" "h" 1
13 1 2 "experimental" 39 "s" "s.bmp" "e" "e.bmp" "SITTING" 8 906 "s" "s" 1
13 1 2 "experimental" 40 "h" "h.bmp" "u" "u.bmp" "SITTING" 4 715 "h" "h" 1
13 1 2 "experimental" 41 "s" "s.bmp" "e" "e.bmp" "SITTING" 8 671 "s" "s" 1
13 1 2 "experimental" 42 "s" "s.bmp" "u" "u.bmp" "SITTING" 8 874 "s" "s" 1
13 1 2 "experimental" 43 "h" "h.bmp" "u" "u.bmp" "SITTING" 4 832 "h" "h" 1
13 1 2 "experimental" 44 "s" "s.bmp" "u" "u.bmp" "SITTING" 4 646 "s" "s" 1
13 1 2 "experimental" 45 "s" "s.bmp" "e" "e.bmp" "SITTING" 4 700 "s" "s" 1
13 1 2 "experimental" 46 "h" "h.bmp" "e" "e.bmp" "SITTING" 4 633 "h" "h" 1
13 1 2 "experimental" 47 "h" "h.bmp" "u" "u.bmp" "SITTING" 8 1222 "h" "h" 1
13 1 2 "experimental" 48 "h" "h.bmp" "e" "e.bmp" "SITTING" 8 1571 "h" "h" 1
13 1 2 "experimental" 49 "s" "s.bmp" "u" "u.bmp" "SITTING" 8 790 "s" "s" 1
13 1 2 "experimental" 50 "h" "h.bmp" "e" "e.bmp" "SITTING" 4 698 "h" "h" 1
13 1 2 "experimental" 51 "s" "s.bmp" "e" "e.bmp" "SITTING" 4 697 "s" "s" 1
13 1 2 "experimental" 52 "h" "h.bmp" "e" "e.bmp" "SITTING" 8 816 "h" "h" 1
13 1 2 "experimental" 53 "h" "h.bmp" "u" "u.bmp" "SITTING" 4 783 "h" "h" 1
13 1 2 "experimental" 54 "s" "s.bmp" "e" "e.bmp" "SITTING" 8 954 "s" "s" 1
13 1 2 "experimental" 55 "s" "s.bmp" "u" "u.bmp" "SITTING" 4 805 "s" "s" 1
13 1 2 "experimental" 56 "h" "h.bmp" "u" "u.bmp" "SITTING" 8 807 "h" "h" 1
13 1 2 "experimental" 57 "h" "h.bmp" "e" "e.bmp" "SITTING" 4 710 "h" "h" 1
13 1 2 "experimental" 58 "s" "s.bmp" "u" "u.bmp" "SITTING" 4 594 "s" "s" 1
13 1 2 "experimental" 59 "h" "h.bmp" "e" "e.bmp" "SITTING" 8 1414 "h" "h" 1
13 1 2 "experimental" 60 "h" "h.bmp" "u" "u.bmp" "SITTING" 8 775 "h" "h" 1
13 1 2 "experimental" 61 "s" "s.bmp" "e" "e.bmp" "SITTING" 8 710 "s" "s" 1
13 1 2 "experimental" 62 "s" "s.bmp" "e" "e.bmp" "SITTING" 4 541 "s" "s" 1
13 1 2 "experimental" 63 "s" "s.bmp" "u" "u.bmp" "SITTING" 8 516 "s" "s" 1
13 1 2 "experimental" 64 "h" "h.bmp" "u" "u.bmp" "SITTING" 4 740 "h" "h" 1
13 1 2 "experimental" 65 "s" "s.bmp" "e" "e.bmp" "SITTING" 8 706 "s" "s" 1
13 1 2 "experimental" 66 "s" "s.bmp" "e" "e.bmp" "SITTING" 4 1099 "s" "s" 1
13 1 2 "experimental" 67 "h" "h.bmp" "u" "u.bmp" "SITTING" 4 653 "h" "h" 1
13 1 2 "experimental" 68 "s" "s.bmp" "u" "u.bmp" "SITTING" 8 725 "s" "s" 1
13 1 2 "experimental" 69 "h" "h.bmp" "e" "e.bmp" "SITTING" 4 911 "h" "h" 1
13 1 2 "experimental" 70 "h" "h.bmp" "u" "u.bmp" "SITTING" 8 750 "h" "h" 1
13 1 2 "experimental" 71 "s" "s.bmp" "u" "u.bmp" "SITTING" 4 635 "s" "s" 1
13 1 2 "experimental" 72 "h" "h.bmp" "e" "e.bmp" "SITTING" 8 985 "h" "h" 1
13 1 2 "experimental" 73 "s" "s.bmp" "e" "e.bmp" "SITTING" 4 696 "s" "s" 1
13 1 2 "experimental" 74 "h" "h.bmp" "e" "e.bmp" "SITTING" 4 777 "h" "h" 1
13 1 2 "experimental" 75 "h" "h.bmp" "u" "u.bmp" "SITTING" 4 748 "h" "h" 1
13 1 2 "experimental" 76 "s" "s.bmp" "u" "u.bmp" "SITTING" 4 630 "s" "s" 1
13 1 2 "experimental" 77 "h" "h.bmp" "u" "u.bmp" "SITTING" 8 607 "h" "h" 1
13 1 2 "experimental" 78 "s" "s.bmp" "u" "u.bmp" "SITTING" 8 595 "s" "s" 1
13 1 2 "experimental" 79 "s" "s.bmp" "e" "e.bmp" "SITTING" 8 1321 "s" "s" 1
13 1 2 "experimental" 80 "h" "h.bmp" "e" "e.bmp" "SITTING" 8 835 "h" "h" 1
13 1 2 "experimental" 81 "h" "h.bmp" "e" "e.bmp" "SITTING" 4 1103 "h" "h" 1
13 1 2 "experimental" 82 "h" "h.bmp" "u" "u.bmp" "SITTING" 4 1147 "h" "h" 1
13 1 2 "experimental" 83 "h" "h.bmp" "e" "e.bmp" "SITTING" 8 1316 "h" "h" 1
13 1 2 "experimental" 84 "s" "s.bmp" "e" "e.bmp" "SITTING" 4 672 "s" "s" 1
13 1 2 "experimental" 85 "s" "s.bmp" "e" "e.bmp" "SITTING" 8 995 "s" "s" 1
13 1 2 "experimental" 86 "s" "s.bmp" "u" "u.bmp" "SITTING" 8 662 "s" "s" 1
13 1 2 "experimental" 87 "s" "s.bmp" "u" "u.bmp" "SITTING" 4 663 "s" "s" 1
13 1 2 "experimental" 88 "h" "h.bmp" "u" "u.bmp" "SITTING" 8 1120 "h" "h" 1
13 1 2 "experimental" 89 "h" "h.bmp" "e" "e.bmp" "SITTING" 8 678 "h" "h" 1
13 1 2 "experimental" 90 "h" "h.bmp" "u" "u.bmp" "SITTING" 8 1042 "h" "h" 1
13 1 2 "experimental" 91 "s" "s.bmp" "e" "e.bmp" "SITTING" 4 658 "s" "s" 1
13 1 2 "experimental" 92 "s" "s.bmp" "u" "u.bmp" "SITTING" 4 690 "s" "s" 1
13 1 2 "experimental" 93 "s" "s.bmp" "e" "e.bmp" "SITTING" 8 1161 "s" "s" 1
13 1 2 "experimental" 94 "h" "h.bmp" "e" "e.bmp" "SITTING" 4 729 "h" "h" 1
13 1 2 "experimental" 95 "s" "s.bmp" "u" "u.bmp" "SITTING" 8 936 "s" "s" 1
13 1 2 "experimental" 96 "h" "h.bmp" "u" "u.bmp" "SITTING" 4 631 "h" "h" 1
13 1 2 "experimental" 97 "h" "h.bmp" "e" "e.bmp" "SITTING" 4 636 "h" "h" 1
13 1 2 "experimental" 98 "h" "h.bmp" "e" "e.bmp" "SITTING" 8 794 "h" "h" 1
13 1 2 "experimental" 99 "s" "s.bmp" "e" "e.bmp" "SITTING" 4 1760 "s" "s" 1
13 1 2 "experimental" 100 "s" "s.bmp" "e" "e.bmp" "SITTING" 8 630 "s" "s" 1
13 1 2 "experimental" 101 "s" "s.bmp" "u" "u.bmp" "SITTING" 4 659 "s" "s" 1
13 1 2 "experimental" 102 "s" "s.bmp" "u" "u.bmp" "SITTING" 8 1083 "s" "s" 1
13 1 2 "experimental" 103 "h" "h.bmp" "u" "u.bmp" "SITTING" 8 931 "h" "h" 1
13 1 2 "experimental" 104 "h" "h.bmp" "u" "u.bmp" "SITTING" 4 637 "h" "h" 1
13 1 2 "experimental" 105 "s" "s.bmp" "e" "e.bmp" "SITTING" 4 874 "s" "s" 1
13 1 2 "experimental" 106 "s" "s.bmp" "u" "u.bmp" "SITTING" 4 795 "s" "s" 1
13 1 2 "experimental" 107 "h" "h.bmp" "e" "e.bmp" "SITTING" 4 617 "h" "h" 1
13 1 2 "experimental" 108 "h" "h.bmp" "u" "u.bmp" "SITTING" 8 619 "h" "h" 1
13 1 2 "experimental" 109 "h" "h.bmp" "e" "e.bmp" "SITTING" 8 638 "h" "h" 1
13 1 2 "experimental" 110 "s" "s.bmp" "u" "u.bmp" "SITTING" 8 1049 "s" "s" 1
13 1 2 "experimental" 111 "h" "h.bmp" "u" "u.bmp" "SITTING" 4 631 "h" "h" 1
13 1 2 "experimental" 112 "s" "s.bmp" "e" "e.bmp" "SITTING" 8 1072 "s" "s" 1
13 1 2 "experimental" 113 "s" "s.bmp" "u" "u.bmp" "SITTING" 8 726 "s" "s" 1
13 1 2 "experimental" 114 "h" "h.bmp" "e" "e.bmp" "SITTING" 4 846 "h" "h" 1
13 1 2 "experimental" 115 "s" "s.bmp" "e" "e.bmp" "SITTING" 4 678 "s" "s" 1
13 1 2 "experimental" 116 "s" "s.bmp" "u" "u.bmp" "SITTING" 4 738 "s" "s" 1
13 1 2 "experimental" 117 "h" "h.bmp" "e" "e.bmp" "SITTING" 8 748 "h" "h" 1
13 1 2 "experimental" 118 "s" "s.bmp" "e" "e.bmp" "SITTING" 8 1092 "s" "s" 1
13 1 2 "experimental" 119 "h" "h.bmp" "u" "u.bmp" "SITTING" 8 652 "h" "h" 1
13 1 2 "experimental" 120 "h" "h.bmp" "u" "u.bmp" "SITTING" 4 644 "h" "h" 1
13 1 2 "experimental" 121 "s" "s.bmp" "e" "e.bmp" "SITTING" 4 1771 "s" "s" 1
13 1 2 "experimental" 122 "h" "h.bmp" "u" "u.bmp" "SITTING" 4 1179 "h" "h" 1
13 1 2 "experimental" 123 "s" "s.bmp" "e" "e.bmp" "SITTING" 8 1026 "s" "s" 1
13 1 2 "experimental" 124 "s" "s.bmp" "u" "u.bmp" "SITTING" 8 898 "s" "s" 1
13 1 2 "experimental" 125 "h" "h.bmp" "e" "e.bmp" "SITTING" 8 1136 "h" "h" 1
13 1 2 "experimental" 126 "h" "h.bmp" "u" "u.bmp" "SITTING" 8 1008 "h" "h" 1
13 1 2 "experimental" 127 "s" "s.bmp" "u" "u.bmp" "SITTING" 4 723 "s" "s" 1
13 1 2 "experimental" 128 "h" "h.bmp" "e" "e.bmp" "SITTING" 4 664 "h" "h" 1
13 1 3 "experimental" 1 "h" "h.bmp" "e" "e.bmp" "STANDING" 4 738 "h" "h" 1
13 1 3 "experimental" 2 "s" "s.bmp" "u" "u.bmp" "STANDING" 8 661 "s" "s" 1
13 1 3 "experimental" 3 "h" "h.bmp" "u" "u.bmp" "STANDING" 8 736 "h" "h" 1
13 1 3 "experimental" 4 "s" "s.bmp" "e" "e.bmp" "STANDING" 4 642 "s" "s" 1
13 1 3 "experimental" 5 "s" "s.bmp" "u" "u.bmp" "STANDING" 4 679 "s" "s" 1
13 1 3 "experimental" 6 "s" "s.bmp" "e" "e.bmp" "STANDING" 8 738 "s" "s" 1
13 1 3 "experimental" 7 "h" "h.bmp" "u" "u.bmp" "STANDING" 4 633 "h" "h" 1
13 1 3 "experimental" 8 "h" "h.bmp" "e" "e.bmp" "STANDING" 8 631 "h" "h" 1
13 1 3 "experimental" 9 "s" "s.bmp" "e" "e.bmp" "STANDING" 4 719 "s" "s" 1
13 1 3 "experimental" 10 "s" "s.bmp" "u" "u.bmp" "STANDING" 4 649 "s" "s" 1
13 1 3 "experimental" 11 "h" "h.bmp" "u" "u.bmp" "STANDING" 8 580 "h" "h" 1
13 1 3 "experimental" 12 "h" "h.bmp" "e" "e.bmp" "STANDING" 8 633 "h" "h" 1
13 1 3 "experimental" 13 "s" "s.bmp" "u" "u.bmp" "STANDING" 8 688 "s" "s" 1
13 1 3 "experimental" 14 "h" "h.bmp" "u" "u.bmp" "STANDING" 4 691 "h" "h" 1
13 1 3 "experimental" 15 "s" "s.bmp" "e" "e.bmp" "STANDING" 8 754 "s" "s" 1
13 1 3 "experimental" 16 "h" "h.bmp" "e" "e.bmp" "STANDING" 4 841 "h" "h" 1
13 1 3 "experimental" 17 "s" "s.bmp" "e" "e.bmp" "STANDING" 8 1045 "s" "s" 1
13 1 3 "experimental" 18 "s" "s.bmp" "e" "e.bmp" "STANDING" 4 759 "s" "s" 1
13 1 3 "experimental" 19 "s" "s.bmp" "u" "u.bmp" "STANDING" 4 1014 "s" "s" 1
13 1 3 "experimental" 20 "h" "h.bmp" "e" "e.bmp" "STANDING" 4 589 "h" "h" 1
13 1 3 "experimental" 21 "h" "h.bmp" "u" "u.bmp" "STANDING" 4 651 "h" "h" 1
13 1 3 "experimental" 22 "h" "h.bmp" "u" "u.bmp" "STANDING" 8 708 "h" "h" 1
13 1 3 "experimental" 23 "s" "s.bmp" "u" "u.bmp" "STANDING" 8 737 "s" "s" 1
13 1 3 "experimental" 24 "h" "h.bmp" "e" "e.bmp" "STANDING" 8 1528 "h" "h" 1
13 1 3 "experimental" 25 "s" "s.bmp" "u" "u.bmp" "STANDING" 4 641 "s" "s" 1
13 1 3 "experimental" 26 "h" "h.bmp" "u" "u.bmp" "STANDING" 8 833 "h" "h" 1
13 1 3 "experimental" 27 "s" "s.bmp" "u" "u.bmp" "STANDING" 8 697 "s" "s" 1
13 1 3 "experimental" 28 "h" "h.bmp" "e" "e.bmp" "STANDING" 4 939 "h" "h" 1
13 1 3 "experimental" 29 "s" "s.bmp" "e" "e.bmp" "STANDING" 8 625 "s" "s" 1
13 1 3 "experimental" 30 "s" "s.bmp" "e" "e.bmp" "STANDING" 4 668 "s" "s" 1
13 1 3 "experimental" 31 "h" "h.bmp" "u" "u.bmp" "STANDING" 4 651 "h" "h" 1
13 1 3 "experimental" 32 "h" "h.bmp" "e" "e.bmp" "STANDING" 8 867 "h" "h" 1
13 1 3 "experimental" 33 "s" "s.bmp" "e" "e.bmp" "STANDING" 8 525 "s" "s" 1
13 1 3 "experimental" 34 "h" "h.bmp" "u" "u.bmp" "STANDING" 8 712 "h" "h" 1
13 1 3 "experimental" 35 "h" "h.bmp" "e" "e.bmp" "STANDING" 4 617 "h" "h" 1
13 1 3 "experimental" 36 "s" "s.bmp" "u" "u.bmp" "STANDING" 4 628 "s" "s" 1
13 1 3 "experimental" 37 "s" "s.bmp" "e" "e.bmp" "STANDING" 4 624 "s" "s" 1
13 1 3 "experimental" 38 "h" "h.bmp" "e" "e.bmp" "STANDING" 8 1373 "h" "h" 1
13 1 3 "experimental" 39 "h" "h.bmp" "u" "u.bmp" "STANDING" 4 576 "h" "h" 1
13 1 3 "experimental" 40 "s" "s.bmp" "u" "u.bmp" "STANDING" 8 515 "s" "s" 1
13 1 3 "experimental" 41 "s" "s.bmp" "e" "e.bmp" "STANDING" 4 533 "s" "s" 1
13 1 3 "experimental" 42 "s" "s.bmp" "u" "u.bmp" "STANDING" 8 587 "s" "s" 1
13 1 3 "experimental" 43 "h" "h.bmp" "e" "e.bmp" "STANDING" 8 587 "h" "h" 1
13 1 3 "experimental" 44 "h" "h.bmp" "u" "u.bmp" "STANDING" 8 594 "h" "h" 1
13 1 3 "experimental" 45 "s" "s.bmp" "u" "u.bmp" "STANDING" 4 589 "s" "s" 1
13 1 3 "experimental" 46 "s" "s.bmp" "e" "e.bmp" "STANDING" 8 547 "s" "s" 1
13 1 3 "experimental" 47 "h" "h.bmp" "u" "u.bmp" "STANDING" 4 574 "h" "h" 1
13 1 3 "experimental" 48 "h" "h.bmp" "e" "e.bmp" "STANDING" 4 474 "h" "h" 1
13 1 3 "experimental" 49 "h" "h.bmp" "u" "u.bmp" "STANDING" 4 655 "h" "h" 1
13 1 3 "experimental" 50 "h" "h.bmp" "u" "u.bmp" "STANDING" 8 791 "h" "h" 1
13 1 3 "experimental" 51 "s" "s.bmp" "e" "e.bmp" "STANDING" 8 614 "s" "s" 1
13 1 3 "experimental" 52 "s" "s.bmp" "u" "u.bmp" "STANDING" 4 599 "s" "s" 1
13 1 3 "experimental" 53 "s" "s.bmp" "e" "e.bmp" "STANDING" 4 430 "s" "s" 1
13 1 3 "experimental" 54 "h" "h.bmp" "e" "e.bmp" "STANDING" 4 731 "h" "h" 1
13 1 3 "experimental" 55 "h" "h.bmp" "e" "e.bmp" "STANDING" 8 630 "h" "h" 1
13 1 3 "experimental" 56 "s" "s.bmp" "u" "u.bmp" "STANDING" 8 771 "s" "s" 1
13 1 3 "experimental" 57 "s" "s.bmp" "e" "e.bmp" "STANDING" 4 716 "s" "s" 1
13 1 3 "experimental" 58 "s" "s.bmp" "e" "e.bmp" "STANDING" 8 941 "s" "s" 1
13 1 3 "experimental" 59 "h" "h.bmp" "u" "u.bmp" "STANDING" 4 577 "h" "h" 1
13 1 3 "experimental" 60 "h" "h.bmp" "e" "e.bmp" "STANDING" 4 605 "h" "h" 1
13 1 3 "experimental" 61 "h" "h.bmp" "e" "e.bmp" "STANDING" 8 934 "h" "h" 1
13 1 3 "experimental" 62 "s" "s.bmp" "u" "u.bmp" "STANDING" 8 1118 "s" "s" 1
13 1 3 "experimental" 63 "h" "h.bmp" "u" "u.bmp" "STANDING" 8 606 "h" "h" 1
13 1 3 "experimental" 64 "s" "s.bmp" "u" "u.bmp" "STANDING" 4 555 "s" "s" 1
13 1 3 "experimental" 65 "s" "s.bmp" "e" "e.bmp" "STANDING" 4 636 "s" "s" 1
13 1 3 "experimental" 66 "h" "h.bmp" "e" "e.bmp" "STANDING" 4 869 "h" "h" 1
13 1 3 "experimental" 67 "h" "h.bmp" "u" "u.bmp" "STANDING" 4 605 "h" "h" 1
13 1 3 "experimental" 68 "h" "h.bmp" "u" "u.bmp" "STANDING" 8 678 "h" "h" 1
13 1 3 "experimental" 69 "s" "s.bmp" "u" "u.bmp" "STANDING" 4 557 "s" "s" 1
13 1 3 "experimental" 70 "h" "h.bmp" "e" "e.bmp" "STANDING" 8 812 "h" "h" 1
13 1 3 "experimental" 71 "s" "s.bmp" "e" "e.bmp" "STANDING" 8 693 "s" "s" 1
13 1 3 "experimental" 72 "s" "s.bmp" "u" "u.bmp" "STANDING" 8 555 "s" "s" 1
13 1 3 "experimental" 73 "h" "h.bmp" "u" "u.bmp" "STANDING" 4 690 "h" "h" 1
13 1 3 "experimental" 74 "h" "h.bmp" "u" "u.bmp" "STANDING" 8 831 "h" "h" 1
13 1 3 "experimental" 75 "s" "s.bmp" "e" "e.bmp" "STANDING" 8 579 "s" "s" 1
13 1 3 "experimental" 76 "h" "h.bmp" "e" "e.bmp" "STANDING" 8 590 "h" "h" 1
13 1 3 "experimental" 77 "s" "s.bmp" "u" "u.bmp" "STANDING" 8 652 "s" "s" 1
13 1 3 "experimental" 78 "s" "s.bmp" "u" "u.bmp" "STANDING" 4 604 "s" "s" 1
13 1 3 "experimental" 79 "h" "h.bmp" "e" "e.bmp" "STANDING" 4 789 "h" "h" 1
13 1 3 "experimental" 80 "s" "s.bmp" "e" "e.bmp" "STANDING" 4 904 "s" "s" 1
13 1 3 "experimental" 81 "h" "h.bmp" "u" "u.bmp" "STANDING" 4 655 "h" "h" 1
13 1 3 "experimental" 82 "s" "s.bmp" "u" "u.bmp" "STANDING" 8 813 "s" "s" 1
13 1 3 "experimental" 83 "s" "s.bmp" "u" "u.bmp" "STANDING" 4 820 "s" "s" 1
13 1 3 "experimental" 84 "h" "h.bmp" "u" "u.bmp" "STANDING" 8 616 "h" "h" 1
13 1 3 "experimental" 85 "h" "h.bmp" "e" "e.bmp" "STANDING" 4 699 "h" "h" 1
13 1 3 "experimental" 86 "s" "s.bmp" "e" "e.bmp" "STANDING" 4 718 "s" "s" 1
13 1 3 "experimental" 87 "h" "h.bmp" "e" "e.bmp" "STANDING" 8 859 "h" "h" 1
13 1 3 "experimental" 88 "s" "s.bmp" "e" "e.bmp" "STANDING" 8 629 "s" "s" 1
13 1 3 "experimental" 89 "h" "h.bmp" "e" "e.bmp" "STANDING" 4 608 "h" "h" 1
13 1 3 "experimental" 90 "h" "h.bmp" "e" "e.bmp" "STANDING" 8 656 "h" "h" 1
13 1 3 "experimental" 91 "s" "s.bmp" "e" "e.bmp" "STANDING" 8 641 "s" "s" 1
13 1 3 "experimental" 92 "h" "h.bmp" "u" "u.bmp" "STANDING" 4 709 "h" "h" 1
13 1 3 "experimental" 93 "h" "h.bmp" "u" "u.bmp" "STANDING" 8 701 "h" "h" 1
13 1 3 "experimental" 94 "s" "s.bmp" "u" "u.bmp" "STANDING" 4 549 "s" "s" 1
13 1 3 "experimental" 95 "s" "s.bmp" "u" "u.bmp" "STANDING" 8 876 "s" "s" 1
13 1 3 "experimental" 96 "s" "s.bmp" "e" "e.bmp" "STANDING" 4 701 "s" "s" 1
13 1 3 "experimental" 97 "h" "h.bmp" "u" "u.bmp" "STANDING" 8 621 "h" "h" 1
13 1 3 "experimental" 98 "s" "s.bmp" "e" "e.bmp" "STANDING" 4 670 "s" "s" 1
13 1 3 "experimental" 99 "s" "s.bmp" "e" "e.bmp" "STANDING" 8 704 "s" "s" 1
13 1 3 "experimental" 100 "s" "s.bmp" "u" "u.bmp" "STANDING" 8 750 "s" "s" 1
13 1 3 "experimental" 101 "h" "h.bmp" "e" "e.bmp" "STANDING" 8 1215 "h" "h" 1
13 1 3 "experimental" 102 "s" "s.bmp" "u" "u.bmp" "STANDING" 4 617 "s" "s" 1
13 1 3 "experimental" 103 "h" "h.bmp" "e" "e.bmp" "STANDING" 4 582 "h" "h" 1
13 1 3 "experimental" 104 "h" "h.bmp" "u" "u.bmp" "STANDING" 4 660 "h" "h" 1
13 1 3 "experimental" 105 "s" "s.bmp" "u" "u.bmp" "STANDING" 8 992 "s" "s" 1
13 1 3 "experimental" 106 "s" "s.bmp" "e" "e.bmp" "STANDING" 4 683 "s" "s" 1
13 1 3 "experimental" 107 "h" "h.bmp" "e" "e.bmp" "STANDING" 4 603 "h" "h" 1
13 1 3 "experimental" 108 "s" "s.bmp" "u" "u.bmp" "STANDING" 4 639 "s" "s" 1
13 1 3 "experimental" 109 "h" "h.bmp" "u" "u.bmp" "STANDING" 8 722 "h" "h" 1
13 1 3 "experimental" 110 "s" "s.bmp" "e" "e.bmp" "STANDING" 8 622 "s" "s" 1
13 1 3 "experimental" 111 "h" "h.bmp" "u" "u.bmp" "STANDING" 4 631 "h" "h" 1
13 1 3 "experimental" 112 "h" "h.bmp" "e" "e.bmp" "STANDING" 8 947 "h" "h" 1
13 1 3 "experimental" 113 "s" "s.bmp" "e" "e.bmp" "STANDING" 8 919 "s" "s" 1
13 1 3 "experimental" 114 "h" "h.bmp" "e" "e.bmp" "STANDING" 8 655 "h" "h" 1
13 1 3 "experimental" 115 "h" "h.bmp" "e" "e.bmp" "STANDING" 4 718 "h" "h" 1
13 1 3 "experimental" 116 "s" "s.bmp" "e" "e.bmp" "STANDING" 4 703 "s" "s" 1
13 1 3 "experimental" 117 "h" "h.bmp" "u" "u.bmp" "STANDING" 4 703 "h" "h" 1
13 1 3 "experimental" 118 "s" "s.bmp" "u" "u.bmp" "STANDING" 4 612 "s" "s" 1
13 1 3 "experimental" 119 "s" "s.bmp" "u" "u.bmp" "STANDING" 8 533 "s" "s" 1
13 1 3 "experimental" 120 "h" "h.bmp" "u" "u.bmp" "STANDING" 8 613 "h" "h" 1
13 1 3 "experimental" 121 "h" "h.bmp" "e" "e.bmp" "STANDING" 8 711 "h" "h" 1
13 1 3 "experimental" 122 "s" "s.bmp" "u" "u.bmp" "STANDING" 8 780 "s" "s" 1
13 1 3 "experimental" 123 "h" "h.bmp" "u" "u.bmp" "STANDING" 8 746 "h" "h" 1
13 1 3 "experimental" 124 "s" "s.bmp" "e" "e.bmp" "STANDING" 8 987 "s" "s" 1
13 1 3 "experimental" 125 "s" "s.bmp" "e" "e.bmp" "STANDING" 4 662 "s" "s" 1
13 1 3 "experimental" 126 "h" "h.bmp" "e" "e.bmp" "STANDING" 4 739 "h" "h" 1
13 1 3 "experimental" 127 "s" "s.bmp" "u" "u.bmp" "STANDING" 4 603 "s" "s" 1
13 1 3 "experimental" 128 "h" "h.bmp" "u" "u.bmp" "STANDING" 4 529 "h" "h" 1
14 2 2 "experimental" 1 "s" "s.bmp" "u" "u.bmp" "STANDING" 4 556 "s" "s" 1
14 2 2 "experimental" 2 "h" "h.bmp" "e" "e.bmp" "STANDING" 8 693 "s" "h" 0
14 2 2 "experimental" 3 "s" "s.bmp" "e" "e.bmp" "STANDING" 4 795 "s" "s" 1
14 2 2 "experimental" 4 "s" "s.bmp" "u" "u.bmp" "STANDING" 8 743 "s" "s" 1
14 2 2 "experimental" 5 "h" "h.bmp" "e" "e.bmp" "STANDING" 4 715 "h" "h" 1
14 2 2 "experimental" 6 "h" "h.bmp" "u" "u.bmp" "STANDING" 4 821 "h" "h" 1
14 2 2 "experimental" 7 "s" "s.bmp" "e" "e.bmp" "STANDING" 8 1029 "s" "s" 1
14 2 2 "experimental" 8 "h" "h.bmp" "u" "u.bmp" "STANDING" 8 1341 "h" "h" 1
14 2 2 "experimental" 9 "s" "s.bmp" "u" "u.bmp" "STANDING" 8 572 "s" "s" 1
14 2 2 "experimental" 10 "s" "s.bmp" "e" "e.bmp" "STANDING" 4 807 "s" "s" 1
14 2 2 "experimental" 11 "s" "s.bmp" "u" "u.bmp" "STANDING" 4 766 "s" "s" 1
14 2 2 "experimental" 12 "h" "h.bmp" "e" "e.bmp" "STANDING" 4 880 "h" "h" 1
14 2 2 "experimental" 13 "h" "h.bmp" "e" "e.bmp" "STANDING" 8 843 "h" "h" 1
14 2 2 "experimental" 14 "s" "s.bmp" "e" "e.bmp" "STANDING" 8 724 "s" "s" 1
14 2 2 "experimental" 15 "h" "h.bmp" "u" "u.bmp" "STANDING" 4 728 "h" "h" 1
14 2 2 "experimental" 16 "h" "h.bmp" "u" "u.bmp" "STANDING" 8 708 "h" "h" 1
14 2 2 "experimental" 17 "h" "h.bmp" "u" "u.bmp" "STANDING" 4 668 "h" "h" 1
14 2 2 "experimental" 18 "h" "h.bmp" "e" "e.bmp" "STANDING" 8 783 "h" "h" 1
14 2 2 "experimental" 19 "s" "s.bmp" "u" "u.bmp" "STANDING" 4 621 "s" "s" 1
14 2 2 "experimental" 20 "h" "h.bmp" "e" "e.bmp" "STANDING" 4 669 "h" "h" 1
14 2 2 "experimental" 21 "s" "s.bmp" "u" "u.bmp" "STANDING" 8 640 "s" "s" 1
14 2 2 "experimental" 22 "s" "s.bmp" "e" "e.bmp" "STANDING" 4 702 "s" "s" 1
14 2 2 "experimental" 23 "h" "h.bmp" "u" "u.bmp" "STANDING" 8 955 "h" "h" 1
14 2 2 "experimental" 24 "s" "s.bmp" "e" "e.bmp" "STANDING" 8 689 "s" "s" 1
14 2 2 "experimental" 25 "s" "s.bmp" "u" "u.bmp" "STANDING" 4 614 "s" "s" 1
14 2 2 "experimental" 26 "s" "s.bmp" "e" "e.bmp" "STANDING" 4 599 "s" "s" 1
14 2 2 "experimental" 27 "h" "h.bmp" "e" "e.bmp" "STANDING" 4 919 "h" "h" 1
14 2 2 "experimental" 28 "h" "h.bmp" "u" "u.bmp" "STANDING" 8 798 "h" "h" 1
14 2 2 "experimental" 29 "s" "s.bmp" "u" "u.bmp" "STANDING" 8 722 "s" "s" 1
14 2 2 "experimental" 30 "h" "h.bmp" "u" "u.bmp" "STANDING" 4 742 "h" "h" 1
14 2 2 "experimental" 31 "s" "s.bmp" "e" "e.bmp" "STANDING" 8 753 "s" "s" 1
14 2 2 "experimental" 32 "h" "h.bmp" "e" "e.bmp" "STANDING" 8 714 "h" "h" 1
14 2 2 "experimental" 33 "s" "s.bmp" "u" "u.bmp" "STANDING" 8 1008 "s" "s" 1
14 2 2 "experimental" 34 "s" "s.bmp" "e" "e.bmp" "STANDING" 4 1149 "s" "s" 1
14 2 2 "experimental" 35 "h" "h.bmp" "e" "e.bmp" "STANDING" 8 747 "h" "h" 1
14 2 2 "experimental" 36 "h" "h.bmp" "u" "u.bmp" "STANDING" 4 929 "h" "h" 1
14 2 2 "experimental" 37 "h" "h.bmp" "e" "e.bmp" "STANDING" 4 691 "h" "h" 1
14 2 2 "experimental" 38 "h" "h.bmp" "u" "u.bmp" "STANDING" 8 816 "h" "h" 1
14 2 2 "experimental" 39 "s" "s.bmp" "u" "u.bmp" "STANDING" 4 570 "s" "s" 1
