"sj" "cb" "blockNumber" "blockType" "trialNum" "congruency" "posture" "wordStim" "inkColour" "rt" "cResp" "resp" "ac"
"1_1_1" 1 2 "experimental" 1 "incongruent" "STANDING" "RED" "green" 677 2 2 1
"1_1_1" 1 2 "experimental" 2 "neutral" "STANDING" "XXX" "red" 338 1 1 1
"1_1_1" 1 2 "experimental" 3 "incongruent" "STANDING" "GREEN" "red" 701 1 1 1
"1_1_1" 1 2 "experimental" 4 "neutral" "STANDING" "XXXXX" "red" 337 1 1 1
"1_1_1" 1 2 "experimental" 5 "congruent" "STANDING" "GREEN" "green" 397 2 2 1
"1_1_1" 1 2 "experimental" 6 "incongruent" "STANDING" "RED" "green" 381 2 2 1
"1_1_1" 1 2 "experimental" 7 "congruent" "STANDING" "GREEN" "green" 255 2 2 1
"1_1_1" 1 2 "experimental" 8 "congruent" "STANDING" "RED" "red" 293 1 1 1
"1_1_1" 1 2 "experimental" 9 "neutral" "STANDING" "XXXXX" "green" 458 2 2 1
"1_1_1" 1 2 "experimental" 10 "congruent" "STANDING" "RED" "red" 392 1 1 1
"1_1_1" 1 2 "experimental" 11 "incongruent" "STANDING" "GREEN" "red" 385 1 1 1
"1_1_1" 1 2 "experimental" 12 "neutral" "STANDING" "XXX" "green" 426 2 2 1
"1_1_1" 1 2 "experimental" 13 "congruent" "STANDING" "GREEN" "green" 561 2 2 1
"1_1_1" 1 2 "experimental" 14 "neutral" "STANDING" "XXXXX" "red" 419 1 1 1
"1_1_1" 1 2 "experimental" 15 "neutral" "STANDING" "XXX" "red" 346 1 1 1
"1_1_1" 1 2 "experimental" 16 "congruent" "STANDING" "RED" "red" 332 1 1 1
"1_1_1" 1 2 "experimental" 17 "neutral" "STANDING" "XXXXX" "green" 368 2 2 1
"1_1_1" 1 2 "experimental" 18 "incongruent" "STANDING" "RED" "green" 514 2 2 1
"1_1_1" 1 2 "experimental" 19 "congruent" "STANDING" "GREEN" "green" 350 2 2 1
"1_1_1" 1 2 "experimental" 20 "neutral" "STANDING" "XXX" "green" 512 2 2 1
"1_1_1" 1 2 "experimental" 21 "incongruent" "STANDING" "GREEN" "red" 332 1 1 1
"1_1_1" 1 2 "experimental" 22 "congruent" "STANDING" "RED" "red" 351 1 1 1
"1_1_1" 1 2 "experimental" 23 "incongruent" "STANDING" "RED" "green" 450 2 2 1
"1_1_1" 1 2 "experimental" 24 "incongruent" "STANDING" "GREEN" "red" 392 1 1 1
"1_1_1" 1 2 "experimental" 25 "incongruent" "STANDING" "RED" "green" 441 2 2 1
"1_1_1" 1 2 "experimental" 26 "congruent" "STANDING" "GREEN" "green" 431 2 2 1
"1_1_1" 1 2 "experimental" 27 "incongruent" "STANDING" "GREEN" "red" 335 1 1 1
"1_1_1" 1 2 "experimental" 28 "neutral" "STANDING" "XXX" "red" 402 1 1 1
"1_1_1" 1 2 "experimental" 29 "neutral" "STANDING" "XXX" "green" 301 2 2 1
"1_1_1" 1 2 "experimental" 30 "congruent" "STANDING" "RED" "red" 327 1 1 1
"1_1_1" 1 2 "experimental" 31 "neutral" "STANDING" "XXXXX" "red" 371 1 1 1
"1_1_1" 1 2 "experimental" 32 "congruent" "STANDING" "GREEN" "green" 309 2 2 1
"1_1_1" 1 2 "experimental" 33 "incongruent" "STANDING" "RED" "green" 353 2 2 1
"1_1_1" 1 2 "experimental" 34 "incongruent" "STANDING" "GREEN" "red" 292 1 1 1
"1_1_1" 1 2 "experimental" 35 "congruent" "STANDING" "RED" "red" 304 1 1 1
"1_1_1" 1 2 "experimental" 36 "neutral" "STANDING" "XXXXX" "green" 301 2 2 1
"1_1_1" 1 3 "experimental" 1 "neutral" "STANDING" "XXX" "red" 378 1 1 1
"1_1_1" 1 3 "experimental" 2 "congruent" "STANDING" "GREEN" "green" 275 2 2 1
"1_1_1" 1 3 "experimental" 3 "neutral" "STANDING" "XXXXX" "red" 321 1 1 1
"1_1_1" 1 3 "experimental" 4 "neutral" "STANDING" "XXXXX" "green" 285 2 2 1
"1_1_1" 1 3 "experimental" 5 "incongruent" "STANDING" "RED" "green" 394 2 2 1
"1_1_1" 1 3 "experimental" 6 "incongruent" "STANDING" "GREEN" "red" 267 1 1 1
"1_1_1" 1 3 "experimental" 7 "incongruent" "STANDING" "RED" "green" 377 2 2 1
"1_1_1" 1 3 "experimental" 8 "congruent" "STANDING" "RED" "red" 322 1 1 1
"1_1_1" 1 3 "experimental" 9 "neutral" "STANDING" "XXX" "green" 262 2 2 1
"1_1_1" 1 3 "experimental" 10 "incongruent" "STANDING" "GREEN" "red" 340 1 1 1
"1_1_1" 1 3 "experimental" 11 "congruent" "STANDING" "GREEN" "green" 310 2 2 1
"1_1_1" 1 3 "experimental" 12 "congruent" "STANDING" "RED" "red" 274 1 1 1
"1_1_1" 1 3 "experimental" 13 "neutral" "STANDING" "XXX" "red" 152 2 1 0
"1_1_1" 1 3 "experimental" 14 "incongruent" "STANDING" "RED" "green" 498 1 2 0
"1_1_1" 1 3 "experimental" 15 "incongruent" "STANDING" "GREEN" "red" 382 1 1 1
"1_1_1" 1 3 "experimental" 16 "congruent" "STANDING" "GREEN" "green" 519 2 2 1
"1_1_1" 1 3 "experimental" 17 "neutral" "STANDING" "XXX" "green" 435 2 2 1
"1_1_1" 1 3 "experimental" 18 "congruent" "STANDING" "RED" "red" 346 1 1 1
"1_1_1" 1 3 "experimental" 19 "incongruent" "STANDING" "RED" "green" 381 2 2 1
"1_1_1" 1 3 "experimental" 20 "neutral" "STANDING" "XXXXX" "green" 566 2 2 1
"1_1_1" 1 3 "experimental" 21 "congruent" "STANDING" "RED" "red" 368 1 1 1
"1_1_1" 1 3 "experimental" 22 "congruent" "STANDING" "GREEN" "green" 626 2 2 1
"1_1_1" 1 3 "experimental" 23 "incongruent" "STANDING" "GREEN" "red" 352 1 1 1
"1_1_1" 1 3 "experimental" 24 "neutral" "STANDING" "XXXXX" "red" 339 1 1 1
"1_1_1" 1 3 "experimental" 25 "incongruent" "STANDING" "RED" "green" 398 2 2 1
"1_1_1" 1 3 "experimental" 26 "incongruent" "STANDING" "GREEN" "red" 390 1 1 1
"1_1_1" 1 3 "experimental" 27 "neutral" "STANDING" "XXXXX" "green" 447 2 2 1
"1_1_1" 1 3 "experimental" 28 "neutral" "STANDING" "XXX" "red" 397 1 1 1
"1_1_1" 1 3 "experimental" 29 "congruent" "STANDING" "RED" "red" 574 1 1 1
"1_1_1" 1 3 "experimental" 30 "congruent" "STANDING" "RED" "red" 367 1 1 1
"1_1_1" 1 3 "experimental" 31 "congruent" "STANDING" "GREEN" "green" 489 2 2 1
"1_1_1" 1 3 "experimental" 32 "neutral" "STANDING" "XXX" "green" 445 2 2 1
"1_1_1" 1 3 "experimental" 33 "neutral" "STANDING" "XXXXX" "red" 636 1 1 1
"1_1_1" 1 3 "experimental" 34 "incongruent" "STANDING" "RED" "green" 771 2 2 1
"1_1_1" 1 3 "experimental" 35 "congruent" "STANDING" "GREEN" "green" 404 2 2 1
"1_1_1" 1 3 "experimental" 36 "incongruent" "STANDING" "GREEN" "red" 372 1 1 1
"1_1_1" 1 4 "experimental" 1 "neutral" "STANDING" "XXXXX" "green" 358 2 2 1
"1_1_1" 1 4 "experimental" 2 "incongruent" "STANDING" "RED" "green" 624 2 2 1
"1_1_1" 1 4 "experimental" 3 "incongruent" "STANDING" "GREEN" "red" 495 1 1 1
"1_1_1" 1 4 "experimental" 4 "neutral" "STANDING" "XXX" "red" 347 1 1 1
"1_1_1" 1 4 "experimental" 5 "neutral" "STANDING" "XXXXX" "red" 342 1 1 1
"1_1_1" 1 4 "experimental" 6 "congruent" "STANDING" "RED" "red" 337 1 1 1
"1_1_1" 1 4 "experimental" 7 "incongruent" "STANDING" "RED" "green" 324 2 2 1
"1_1_1" 1 4 "experimental" 8 "neutral" "STANDING" "XXX" "green" 360 2 2 1
"1_1_1" 1 4 "experimental" 9 "congruent" "STANDING" "RED" "red" 362 1 1 1
"1_1_1" 1 4 "experimental" 10 "congruent" "STANDING" "GREEN" "green" 372 2 2 1
"1_1_1" 1 4 "experimental" 11 "incongruent" "STANDING" "GREEN" "red" 518 1 1 1
"1_1_1" 1 4 "experimental" 12 "congruent" "STANDING" "GREEN" "green" 449 2 2 1
"1_1_1" 1 4 "experimental" 13 "neutral" "STANDING" "XXXXX" "green" 392 2 2 1
"1_1_1" 1 4 "experimental" 14 "incongruent" "STANDING" "RED" "green" 384 2 2 1
"1_1_1" 1 4 "experimental" 15 "congruent" "STANDING" "RED" "red" 570 1 1 1
"1_1_1" 1 4 "experimental" 16 "congruent" "STANDING" "GREEN" "green" 467 2 2 1
"1_1_1" 1 4 "experimental" 17 "neutral" "STANDING" "XXXXX" "red" 377 1 1 1
"1_1_1" 1 4 "experimental" 18 "neutral" "STANDING" "XXX" "red" 418 2 1 0
"1_1_1" 1 4 "experimental" 19 "congruent" "STANDING" "RED" "red" 385 1 1 1
"1_1_1" 1 4 "experimental" 20 "incongruent" "STANDING" "GREEN" "red" 523 1 1 1
"1_1_1" 1 4 "experimental" 21 "incongruent" "STANDING" "RED" "green" 382 2 2 1
"1_1_1" 1 4 "experimental" 22 "neutral" "STANDING" "XXX" "green" 631 2 2 1
"1_1_1" 1 4 "experimental" 23 "incongruent" "STANDING" "GREEN" "red" 342 1 1 1
"1_1_1" 1 4 "experimental" 24 "congruent" "STANDING" "GREEN" "green" 480 2 2 1
"1_1_1" 1 4 "experimental" 25 "congruent" "STANDING" "RED" "red" 565 1 1 1
"1_1_1" 1 4 "experimental" 26 "congruent" "STANDING" "GREEN" "green" 479 2 2 1
"1_1_1" 1 4 "experimental" 27 "neutral" "STANDING" "XXX" "red" 356 1 1 1
"1_1_1" 1 4 "experimental" 28 "incongruent" "STANDING" "RED" "green" 454 2 2 1
"1_1_1" 1 4 "experimental" 29 "neutral" "STANDING" "XXXXX" "green" 568 2 2 1
"1_1_1" 1 4 "experimental" 30 "incongruent" "STANDING" "GREEN" "red" 470 1 1 1
"1_1_1" 1 4 "experimental" 31 "incongruent" "STANDING" "RED" "green" 444 2 2 1
"1_1_1" 1 4 "experimental" 32 "congruent" "STANDING" "RED" "red" 370 1 1 1
"1_1_1" 1 4 "experimental" 33 "neutral" "STANDING" "XXXXX" "red" 404 1 1 1
"1_1_1" 1 4 "experimental" 34 "neutral" "STANDING" "XXX" "green" 405 2 2 1
"1_1_1" 1 4 "experimental" 35 "incongruent" "STANDING" "GREEN" "red" 366 1 1 1
"1_1_1" 1 4 "experimental" 36 "congruent" "STANDING" "GREEN" "green" 344 2 2 1
"1_1_1" 1 5 "experimental" 1 "congruent" "STANDING" "RED" "red" 322 1 1 1
"1_1_1" 1 5 "experimental" 2 "congruent" "STANDING" "GREEN" "green" 310 2 2 1
"1_1_1" 1 5 "experimental" 3 "neutral" "STANDING" "XXX" "red" 450 1 1 1
"1_1_1" 1 5 "experimental" 4 "neutral" "STANDING" "XXXXX" "red" 353 1 1 1
"1_1_1" 1 5 "experimental" 5 "incongruent" "STANDING" "RED" "green" 556 2 2 1
"1_1_1" 1 5 "experimental" 6 "congruent" "STANDING" "GREEN" "green" 406 2 2 1
"1_1_1" 1 5 "experimental" 7 "incongruent" "STANDING" "GREEN" "red" 350 1 1 1
"1_1_1" 1 5 "experimental" 8 "incongruent" "STANDING" "RED" "green" 392 2 2 1
"1_1_1" 1 5 "experimental" 9 "neutral" "STANDING" "XXX" "green" 369 2 2 1
"1_1_1" 1 5 "experimental" 10 "congruent" "STANDING" "RED" "red" 587 1 1 1
"1_1_1" 1 5 "experimental" 11 "incongruent" "STANDING" "GREEN" "red" 484 2 1 0
"1_1_1" 1 5 "experimental" 12 "neutral" "STANDING" "XXXXX" "green" 648 2 2 1
"1_1_1" 1 5 "experimental" 13 "incongruent" "STANDING" "RED" "green" 790 2 2 1
"1_1_1" 1 5 "experimental" 14 "neutral" "STANDING" "XXX" "red" 454 1 1 1
"1_1_1" 1 5 "experimental" 15 "congruent" "STANDING" "GREEN" "green" 981 2 2 1
"1_1_1" 1 5 "experimental" 16 "congruent" "STANDING" "GREEN" "green" 357 2 2 1
"1_1_1" 1 5 "experimental" 17 "congruent" "STANDING" "RED" "red" 415 1 1 1
"1_1_1" 1 5 "experimental" 18 "incongruent" "STANDING" "GREEN" "red" 423 1 1 1
"1_1_1" 1 5 "experimental" 19 "congruent" "STANDING" "RED" "red" 374 1 1 1
"1_1_1" 1 5 "experimental" 20 "neutral" "STANDING" "XXX" "green" 311 2 2 1
"1_1_1" 1 5 "experimental" 21 "incongruent" "STANDING" "RED" "green" 411 2 2 1
"1_1_1" 1 5 "experimental" 22 "neutral" "STANDING" "XXXXX" "red" 427 1 1 1
"1_1_1" 1 5 "experimental" 23 "neutral" "STANDING" "XXXXX" "green" 474 2 2 1
"1_1_1" 1 5 "experimental" 24 "incongruent" "STANDING" "GREEN" "red" 463 1 1 1
"1_1_1" 1 5 "experimental" 25 "neutral" "STANDING" "XXXXX" "red" 397 1 1 1
"1_1_1" 1 5 "experimental" 26 "neutral" "STANDING" "XXXXX" "green" 478 2 2 1
"1_1_1" 1 5 "experimental" 27 "incongruent" "STANDING" "RED" "green" 467 1 2 0
"1_1_1" 1 5 "experimental" 28 "incongruent" "STANDING" "GREEN" "red" 464 1 1 1
"1_1_1" 1 5 "experimental" 29 "incongruent" "STANDING" "RED" "green" 462 2 2 1
"1_1_1" 1 5 "experimental" 30 "neutral" "STANDING" "XXX" "red" 411 1 1 1
"1_1_1" 1 5 "experimental" 31 "neutral" "STANDING" "XXX" "green" 387 2 2 1
"1_1_1" 1 5 "experimental" 32 "congruent" "STANDING" "GREEN" "green" 621 2 2 1
"1_1_1" 1 5 "experimental" 33 "congruent" "STANDING" "GREEN" "green" 356 2 2 1
"1_1_1" 1 5 "experimental" 34 "congruent" "STANDING" "RED" "red" 391 1 1 1
"1_1_1" 1 5 "experimental" 35 "incongruent" "STANDING" "GREEN" "red" 479 1 1 1
"1_1_1" 1 5 "experimental" 36 "congruent" "STANDING" "RED" "red" 308 1 1 1
"1_1_1" 1 7 "experimental" 1 "congruent" "SITTING" "RED" "red" 728 1 1 1
"1_1_1" 1 7 "experimental" 2 "incongruent" "SITTING" "RED" "green" 355 2 2 1
"1_1_1" 1 7 "experimental" 3 "congruent" "SITTING" "GREEN" "green" 637 2 2 1
"1_1_1" 1 7 "experimental" 4 "neutral" "SITTING" "XXXXX" "green" 429 2 2 1
"1_1_1" 1 7 "experimental" 5 "incongruent" "SITTING" "GREEN" "red" 347 1 1 1
"1_1_1" 1 7 "experimental" 6 "incongruent" "SITTING" "RED" "green" 390 2 2 1
"1_1_1" 1 7 "experimental" 7 "incongruent" "SITTING" "GREEN" "red" 438 1 1 1
"1_1_1" 1 7 "experimental" 8 "congruent" "SITTING" "GREEN" "green" 502 2 2 1
"1_1_1" 1 7 "experimental" 9 "neutral" "SITTING" "XXX" "green" 313 2 2 1
"1_1_1" 1 7 "experimental" 10 "congruent" "SITTING" "RED" "red" 525 1 1 1
"1_1_1" 1 7 "experimental" 11 "neutral" "SITTING" "XXX" "red" 440 2 1 0
"1_1_1" 1 7 "experimental" 12 "neutral" "SITTING" "XXXXX" "red" 422 1 1 1
"1_1_1" 1 7 "experimental" 13 "incongruent" "SITTING" "RED" "green" 574 2 2 1
"1_1_1" 1 7 "experimental" 14 "congruent" "SITTING" "GREEN" "green" 415 2 2 1
"1_1_1" 1 7 "experimental" 15 "neutral" "SITTING" "XXX" "green" 398 2 2 1
"1_1_1" 1 7 "experimental" 16 "neutral" "SITTING" "XXXXX" "red" 471 1 1 1
"1_1_1" 1 7 "experimental" 17 "congruent" "SITTING" "RED" "red" 669 1 1 1
"1_1_1" 1 7 "experimental" 18 "incongruent" "SITTING" "GREEN" "red" 458 1 1 1
"1_1_1" 1 7 "experimental" 19 "incongruent" "SITTING" "RED" "green" 448 2 2 1
"1_1_1" 1 7 "experimental" 20 "congruent" "SITTING" "RED" "red" 414 1 1 1
"1_1_1" 1 7 "experimental" 21 "neutral" "SITTING" "XXX" "red" 438 1 1 1
"1_1_1" 1 7 "experimental" 22 "incongruent" "SITTING" "GREEN" "red" 349 1 1 1
"1_1_1" 1 7 "experimental" 23 "congruent" "SITTING" "GREEN" "green" 431 2 2 1
"1_1_1" 1 7 "experimental" 24 "neutral" "SITTING" "XXXXX" "green" 431 2 2 1
"1_1_1" 1 7 "experimental" 25 "incongruent" "SITTING" "RED" "green" 366 2 2 1
"1_1_1" 1 7 "experimental" 26 "incongruent" "SITTING" "GREEN" "red" 312 1 1 1
"1_1_1" 1 7 "experimental" 27 "congruent" "SITTING" "RED" "red" 389 1 1 1
"1_1_1" 1 7 "experimental" 28 "neutral" "SITTING" "XXXXX" "red" 660 1 1 1
"1_1_1" 1 7 "experimental" 29 "neutral" "SITTING" "XXXXX" "green" 674 2 2 1
"1_1_1" 1 7 "experimental" 30 "congruent" "SITTING" "GREEN" "green" 327 2 2 1
"1_1_1" 1 7 "experimental" 31 "incongruent" "SITTING" "RED" "green" 395 2 2 1
"1_1_1" 1 7 "experimental" 32 "congruent" "SITTING" "GREEN" "green" 434 2 2 1
"1_1_1" 1 7 "experimental" 33 "congruent" "SITTING" "RED" "red" 514 1 1 1
"1_1_1" 1 7 "experimental" 34 "incongruent" "SITTING" "GREEN" "red" 510 1 1 1
"1_1_1" 1 7 "experimental" 35 "neutral" "SITTING" "XXX" "red" 378 1 1 1
"1_1_1" 1 7 "experimental" 36 "neutral" "SITTING" "XXX" "green" 435 2 2 1
"1_1_1" 1 8 "experimental" 1 "congruent" "SITTING" "GREEN" "green" 402 2 2 1
"1_1_1" 1 8 "experimental" 2 "incongruent" "SITTING" "RED" "green" 339 2 2 1
"1_1_1" 1 8 "experimental" 3 "neutral" "SITTING" "XXXXX" "green" 414 2 2 1
"1_1_1" 1 8 "experimental" 4 "neutral" "SITTING" "XXX" "green" 333 2 2 1
"1_1_1" 1 8 "experimental" 5 "neutral" "SITTING" "XXX" "red" 305 1 1 1
"1_1_1" 1 8 "experimental" 6 "neutral" "SITTING" "XXXXX" "red" 278 1 1 1
"1_1_1" 1 8 "experimental" 7 "incongruent" "SITTING" "GREEN" "red" 275 1 1 1
"1_1_1" 1 8 "experimental" 8 "incongruent" "SITTING" "RED" "green" 568 2 2 1
"1_1_1" 1 8 "experimental" 9 "congruent" "SITTING" "RED" "red" 402 1 1 1
"1_1_1" 1 8 "experimental" 10 "congruent" "SITTING" "GREEN" "green" 443 2 2 1
"1_1_1" 1 8 "experimental" 11 "congruent" "SITTING" "RED" "red" 489 1 1 1
"1_1_1" 1 8 "experimental" 12 "incongruent" "SITTING" "GREEN" "red" 374 1 1 1
"1_1_1" 1 8 "experimental" 13 "congruent" "SITTING" "GREEN" "green" 439 2 2 1
"1_1_1" 1 8 "experimental" 14 "neutral" "SITTING" "XXXXX" "green" 357 2 2 1
"1_1_1" 1 8 "experimental" 15 "congruent" "SITTING" "RED" "red" 487 1 1 1
"1_1_1" 1 8 "experimental" 16 "neutral" "SITTING" "XXXXX" "red" 396 1 1 1
"1_1_1" 1 8 "experimental" 17 "congruent" "SITTING" "GREEN" "green" 485 2 2 1
"1_1_1" 1 8 "experimental" 18 "incongruent" "SITTING" "RED" "green" 346 2 2 1
"1_1_1" 1 8 "experimental" 19 "incongruent" "SITTING" "GREEN" "red" 317 1 1 1
"1_1_1" 1 8 "experimental" 20 "neutral" "SITTING" "XXX" "red" 384 1 1 1
"1_1_1" 1 8 "experimental" 21 "incongruent" "SITTING" "RED" "green" 354 2 2 1
"1_1_1" 1 8 "experimental" 22 "neutral" "SITTING" "XXX" "green" 357 2 2 1
"1_1_1" 1 8 "experimental" 23 "congruent" "SITTING" "RED" "red" 495 1 1 1
"1_1_1" 1 8 "experimental" 24 "incongruent" "SITTING" "GREEN" "red" 299 1 1 1
"1_1_1" 1 8 "experimental" 25 "neutral" "SITTING" "XXX" "red" 304 2 1 0
"1_1_1" 1 8 "experimental" 26 "neutral" "SITTING" "XXXXX" "green" 340 2 2 1
"1_1_1" 1 8 "experimental" 27 "congruent" "SITTING" "GREEN" "green" 279 2 2 1
"1_1_1" 1 8 "experimental" 28 "congruent" "SITTING" "GREEN" "green" 356 2 2 1
"1_1_1" 1 8 "experimental" 29 "congruent" "SITTING" "RED" "red" 422 1 1 1
"1_1_1" 1 8 "experimental" 30 "incongruent" "SITTING" "RED" "green" 421 2 2 1
"1_1_1" 1 8 "experimental" 31 "neutral" "SITTING" "XXX" "green" 509 2 2 1
"1_1_1" 1 8 "experimental" 32 "congruent" "SITTING" "RED" "red" 409 1 1 1
"1_1_1" 1 8 "experimental" 33 "incongruent" "SITTING" "GREEN" "red" 417 1 1 1
"1_1_1" 1 8 "experimental" 34 "neutral" "SITTING" "XXXXX" "red" 385 1 1 1
"1_1_1" 1 8 "experimental" 35 "incongruent" "SITTING" "RED" "green" 426 2 2 1
"1_1_1" 1 8 "experimental" 36 "incongruent" "SITTING" "GREEN" "red" 401 1 1 1
"1_1_1" 1 9 "experimental" 1 "congruent" "SITTING" "GREEN" "green" 490 2 2 1
"1_1_1" 1 9 "experimental" 2 "neutral" "SITTING" "XXX" "green" 430 2 2 1
"1_1_1" 1 9 "experimental" 3 "congruent" "SITTING" "RED" "red" 413 1 1 1
"1_1_1" 1 9 "experimental" 4 "congruent" "SITTING" "RED" "red" 405 1 1 1
"1_1_1" 1 9 "experimental" 5 "congruent" "SITTING" "GREEN" "green" 661 2 2 1
"1_1_1" 1 9 "experimental" 6 "neutral" "SITTING" "XXXXX" "green" 610 2 2 1
"1_1_1" 1 9 "experimental" 7 "neutral" "SITTING" "XXXXX" "red" 466 1 1 1
"1_1_1" 1 9 "experimental" 8 "incongruent" "SITTING" "RED" "green" 502 2 2 1
"1_1_1" 1 9 "experimental" 9 "incongruent" "SITTING" "GREEN" "red" 404 1 1 1
"1_1_1" 1 9 "experimental" 10 "incongruent" "SITTING" "RED" "green" 533 2 2 1
"1_1_1" 1 9 "experimental" 11 "incongruent" "SITTING" "GREEN" "red" 376 1 1 1
"1_1_1" 1 9 "experimental" 12 "neutral" "SITTING" "XXX" "red" 449 1 1 1
"1_1_1" 1 9 "experimental" 13 "neutral" "SITTING" "XXX" "green" 567 2 2 1
"1_1_1" 1 9 "experimental" 14 "neutral" "SITTING" "XXXXX" "green" 617 2 2 1
"1_1_1" 1 9 "experimental" 15 "neutral" "SITTING" "XXX" "red" 416 1 1 1
"1_1_1" 1 9 "experimental" 16 "congruent" "SITTING" "RED" "red" 400 1 1 1
"1_1_1" 1 9 "experimental" 17 "congruent" "SITTING" "GREEN" "green" 497 2 2 1
"1_1_1" 1 9 "experimental" 18 "congruent" "SITTING" "RED" "red" 461 1 1 1
"1_1_1" 1 9 "experimental" 19 "incongruent" "SITTING" "RED" "green" 579 2 2 1
"1_1_1" 1 9 "experimental" 20 "incongruent" "SITTING" "GREEN" "red" 420 1 1 1
"1_1_1" 1 9 "experimental" 21 "neutral" "SITTING" "XXXXX" "red" 596 1 1 1
"1_1_1" 1 9 "experimental" 22 "congruent" "SITTING" "GREEN" "green" 444 2 2 1
"1_1_1" 1 9 "experimental" 23 "incongruent" "SITTING" "RED" "green" 619 2 2 1
"1_1_1" 1 9 "experimental" 24 "incongruent" "SITTING" "GREEN" "red" 346 1 1 1
"1_1_1" 1 9 "experimental" 25 "congruent" "SITTING" "RED" "red" 557 1 1 1
"1_1_1" 1 9 "experimental" 26 "neutral" "SITTING" "XXXXX" "green" 414 2 2 1
"1_1_1" 1 9 "experimental" 27 "neutral" "SITTING" "XXXXX" "red" 502 1 1 1
"1_1_1" 1 9 "experimental" 28 "incongruent" "SITTING" "RED" "green" 747 2 2 1
"1_1_1" 1 9 "experimental" 29 "neutral" "SITTING" "XXX" "red" 469 1 1 1
"1_1_1" 1 9 "experimental" 30 "incongruent" "SITTING" "GREEN" "red" 882 2 1 0
"1_1_1" 1 9 "experimental" 31 "congruent" "SITTING" "RED" "red" 518 1 1 1
"1_1_1" 1 9 "experimental" 32 "incongruent" "SITTING" "RED" "green" 449 2 2 1
"1_1_1" 1 9 "experimental" 33 "neutral" "SITTING" "XXX" "green" 431 2 2 1
"1_1_1" 1 9 "experimental" 34 "incongruent" "SITTING" "GREEN" "red" 551 1 1 1
"1_1_1" 1 9 "experimental" 35 "congruent" "SITTING" "GREEN" "green" 497 2 2 1
"1_1_1" 1 9 "experimental" 36 "congruent" "SITTING" "GREEN" "green" 461 2 2 1
"1_1_1" 1 10 "experimental" 1 "congruent" "SITTING" "RED" "red" 451 1 1 1
"1_1_1" 1 10 "experimental" 2 "incongruent" "SITTING" "RED" "green" 570 2 2 1
"1_1_1" 1 10 "experimental" 3 "congruent" "SITTING" "GREEN" "green" 443 2 2 1
"1_1_1" 1 10 "experimental" 4 "incongruent" "SITTING" "GREEN" "red" 434 1 1 1
"1_1_1" 1 10 "experimental" 5 "neutral" "SITTING" "XXXXX" "green" 1113 2 2 1
"1_1_1" 1 10 "experimental" 6 "neutral" "SITTING" "XXX" "green" 515 2 2 1
"1_1_1" 1 10 "experimental" 7 "incongruent" "SITTING" "RED" "green" 527 2 2 1
"1_1_1" 1 10 "experimental" 8 "neutral" "SITTING" "XXX" "red" 426 1 1 1
"1_1_1" 1 10 "experimental" 9 "neutral" "SITTING" "XXXXX" "red" 697 1 1 1
"1_1_1" 1 10 "experimental" 10 "congruent" "SITTING" "GREEN" "green" 381 2 2 1
"1_1_1" 1 10 "experimental" 11 "congruent" "SITTING" "RED" "red" 502 1 1 1
"1_1_1" 1 10 "experimental" 12 "incongruent" "SITTING" "GREEN" "red" 1179 1 1 1
"1_1_1" 1 10 "experimental" 13 "congruent" "SITTING" "GREEN" "green" 387 2 2 1
"1_1_1" 1 10 "experimental" 14 "congruent" "SITTING" "RED" "red" 460 1 1 1
"1_1_1" 1 10 "experimental" 15 "incongruent" "SITTING" "RED" "green" 506 2 2 1
"1_1_1" 1 10 "experimental" 16 "congruent" "SITTING" "RED" "red" 485 1 1 1
"1_1_1" 1 10 "experimental" 17 "incongruent" "SITTING" "GREEN" "red" 418 1 1 1
"1_1_1" 1 10 "experimental" 18 "incongruent" "SITTING" "RED" "green" 451 2 2 1
"1_1_1" 1 10 "experimental" 19 "neutral" "SITTING" "XXX" "green" 425 1 2 0
"1_1_1" 1 10 "experimental" 20 "congruent" "SITTING" "GREEN" "green" 528 2 2 1
"1_1_1" 1 10 "experimental" 21 "neutral" "SITTING" "XXXXX" "green" 667 2 2 1
"1_1_1" 1 10 "experimental" 22 "neutral" "SITTING" "XXX" "red" 416 1 1 1
"1_1_1" 1 10 "experimental" 23 "incongruent" "SITTING" "GREEN" "red" 456 1 1 1
"1_1_1" 1 10 "experimental" 24 "neutral" "SITTING" "XXXXX" "red" 470 1 1 1
"1_1_1" 1 10 "experimental" 25 "neutral" "SITTING" "XXX" "red" 356 1 1 1
"1_1_1" 1 10 "experimental" 26 "neutral" "SITTING" "XXX" "green" 646 2 2 1
"1_1_1" 1 10 "experimental" 27 "congruent" "SITTING" "RED" "red" 540 1 1 1
"1_1_1" 1 10 "experimental" 28 "congruent" "SITTING" "GREEN" "green" 702 2 2 1
"1_1_1" 1 10 "experimental" 29 "incongruent" "SITTING" "RED" "green" 498 1 2 0
"1_1_1" 1 10 "experimental" 30 "congruent" "SITTING" "RED" "red" 550 1 1 1
"1_1_1" 1 10 "experimental" 31 "neutral" "SITTING" "XXXXX" "green" 392 2 2 1
"1_1_1" 1 10 "experimental" 32 "congruent" "SITTING" "GREEN" "green" 313 2 2 1
"1_1_1" 1 10 "experimental" 33 "incongruent" "SITTING" "GREEN" "red" 405 1 1 1
"1_1_1" 1 10 "experimental" 34 "neutral" "SITTING" "XXXXX" "red" 341 1 1 1
"1_1_1" 1 10 "experimental" 35 "incongruent" "SITTING" "RED" "green" 376 2 2 1
"1_1_1" 1 10 "experimental" 36 "incongruent" "SITTING" "GREEN" "red" 521 1 1 1
"10_2_2" 2 2 "experimental" 1 "incongruent" "SITTING" "GREEN" "red" 1190 2 1 0
"10_2_2" 2 2 "experimental" 2 "incongruent" "SITTING" "RED" "green" 1139 2 2 1
"10_2_2" 2 2 "experimental" 3 "neutral" "SITTING" "XXX" "red" 493 1 1 1
"10_2_2" 2 2 "experimental" 4 "congruent" "SITTING" "RED" "red" 465 1 1 1
"10_2_2" 2 2 "experimental" 5 "incongruent" "SITTING" "GREEN" "red" 895 1 1 1
"10_2_2" 2 2 "experimental" 6 "congruent" "SITTING" "GREEN" "green" 419 2 2 1
"10_2_2" 2 2 "experimental" 7 "neutral" "SITTING" "XXXXX" "green" 355 2 2 1
"10_2_2" 2 2 "experimental" 8 "congruent" "SITTING" "RED" "red" 445 1 1 1
"10_2_2" 2 2 "experimental" 9 "neutral" "SITTING" "XXXXX" "red" 460 1 1 1
"10_2_2" 2 2 "experimental" 10 "neutral" "SITTING" "XXX" "green" 354 2 2 1
"10_2_2" 2 2 "experimental" 11 "congruent" "SITTING" "GREEN" "green" 516 2 2 1
"10_2_2" 2 2 "experimental" 12 "incongruent" "SITTING" "RED" "green" 808 2 2 1
"10_2_2" 2 2 "experimental" 13 "incongruent" "SITTING" "GREEN" "red" 384 1 1 1
"10_2_2" 2 2 "experimental" 14 "incongruent" "SITTING" "RED" "green" 424 2 2 1
"10_2_2" 2 2 "experimental" 15 "incongruent" "SITTING" "GREEN" "red" 632 1 1 1
"10_2_2" 2 2 "experimental" 16 "neutral" "SITTING" "XXXXX" "green" 430 2 2 1
"10_2_2" 2 2 "experimental" 17 "incongruent" "SITTING" "RED" "green" 566 2 2 1
"10_2_2" 2 2 "experimental" 18 "congruent" "SITTING" "RED" "red" 607 1 1 1
"10_2_2" 2 2 "experimental" 19 "congruent" "SITTING" "GREEN" "green" 535 2 2 1
"10_2_2" 2 2 "experimental" 20 "neutral" "SITTING" "XXX" "green" 786 2 2 1
"10_2_2" 2 2 "experimental" 21 "congruent" "SITTING" "GREEN" "green" 651 2 2 1
"10_2_2" 2 2 "experimental" 22 "congruent" "SITTING" "RED" "red" 681 1 1 1
"10_2_2" 2 2 "experimental" 23 "neutral" "SITTING" "XXXXX" "red" 502 1 1 1
"10_2_2" 2 2 "experimental" 24 "neutral" "SITTING" "XXX" "red" 578 1 1 1
"10_2_2" 2 2 "experimental" 25 "neutral" "SITTING" "XXXXX" "green" 451 2 2 1
"10_2_2" 2 2 "experimental" 26 "congruent" "SITTING" "GREEN" "green" 505 2 2 1
"10_2_2" 2 2 "experimental" 27 "incongruent" "SITTING" "GREEN" "red" 725 1 1 1
"10_2_2" 2 2 "experimental" 28 "neutral" "SITTING" "XXXXX" "red" 424 1 1 1
"10_2_2" 2 2 "experimental" 29 "congruent" "SITTING" "RED" "red" 575 1 1 1
"10_2_2" 2 2 "experimental" 30 "neutral" "SITTING" "XXX" "red" 440 1 1 1
"10_2_2" 2 2 "experimental" 31 "congruent" "SITTING" "RED" "red" 422 1 1 1
"10_2_2" 2 2 "experimental" 32 "neutral" "SITTING" "XXX" "green" 293 2 2 1
"10_2_2" 2 2 "experimental" 33 "incongruent" "SITTING" "RED" "green" 330 2 2 1
"10_2_2" 2 2 "experimental" 34 "incongruent" "SITTING" "GREEN" "red" 470 1 1 1
"10_2_2" 2 2 "experimental" 35 "incongruent" "SITTING" "RED" "green" 563 2 2 1
"10_2_2" 2 2 "experimental" 36 "congruent" "SITTING" "GREEN" "green" 485 2 2 1
"10_2_2" 2 3 "experimental" 1 "incongruent" "SITTING" "GREEN" "red" 586 1 1 1
"10_2_2" 2 3 "experimental" 2 "congruent" "SITTING" "RED" "red" 395 1 1 1
"10_2_2" 2 3 "experimental" 3 "incongruent" "SITTING" "RED" "green" 387 2 2 1
"10_2_2" 2 3 "experimental" 4 "neutral" "SITTING" "XXX" "red" 413 1 1 1
"10_2_2" 2 3 "experimental" 5 "incongruent" "SITTING" "GREEN" "red" 405 1 1 1
"10_2_2" 2 3 "experimental" 6 "neutral" "SITTING" "XXX" "green" 541 2 2 1
"10_2_2" 2 3 "experimental" 7 "neutral" "SITTING" "XXXXX" "red" 592 1 1 1
"10_2_2" 2 3 "experimental" 8 "incongruent" "SITTING" "RED" "green" 448 2 2 1
"10_2_2" 2 3 "experimental" 9 "neutral" "SITTING" "XXXXX" "green" 798 2 2 1
"10_2_2" 2 3 "experimental" 10 "congruent" "SITTING" "GREEN" "green" 574 2 2 1
"10_2_2" 2 3 "experimental" 11 "congruent" "SITTING" "GREEN" "green" 487 2 2 1
"10_2_2" 2 3 "experimental" 12 "congruent" "SITTING" "RED" "red" 444 1 1 1
"10_2_2" 2 3 "experimental" 13 "incongruent" "SITTING" "GREEN" "red" 467 1 1 1
"10_2_2" 2 3 "experimental" 14 "incongruent" "SITTING" "RED" "green" 720 2 2 1
"10_2_2" 2 3 "experimental" 15 "congruent" "SITTING" "GREEN" "green" 740 2 2 1
"10_2_2" 2 3 "experimental" 16 "neutral" "SITTING" "XXXXX" "red" 542 1 1 1
"10_2_2" 2 3 "experimental" 17 "congruent" "SITTING" "RED" "red" 528 1 1 1
"10_2_2" 2 3 "experimental" 18 "incongruent" "SITTING" "GREEN" "red" 435 1 1 1
"10_2_2" 2 3 "experimental" 19 "congruent" "SITTING" "RED" "red" 371 1 1 1
"10_2_2" 2 3 "experimental" 20 "neutral" "SITTING" "XXXXX" "green" 405 2 2 1
"10_2_2" 2 3 "experimental" 21 "congruent" "SITTING" "GREEN" "green" 397 2 2 1
"10_2_2" 2 3 "experimental" 22 "incongruent" "SITTING" "RED" "green" 462 2 2 1
"10_2_2" 2 3 "experimental" 23 "neutral" "SITTING" "XXX" "green" 428 2 2 1
"10_2_2" 2 3 "experimental" 24 "neutral" "SITTING" "XXX" "red" 403 1 1 1
"10_2_2" 2 3 "experimental" 25 "neutral" "SITTING" "XXXXX" "red" 379 1 1 1
"10_2_2" 2 3 "experimental" 26 "congruent" "SITTING" "RED" "red" 597 1 1 1
"10_2_2" 2 3 "experimental" 27 "incongruent" "SITTING" "GREEN" "red" 389 1 1 1
"10_2_2" 2 3 "experimental" 28 "congruent" "SITTING" "GREEN" "green" 533 2 2 1
"10_2_2" 2 3 "experimental" 29 "incongruent" "SITTING" "RED" "green" 752 1 2 0
"10_2_2" 2 3 "experimental" 30 "incongruent" "SITTING" "GREEN" "red" 1154 1 1 1
"10_2_2" 2 3 "experimental" 31 "neutral" "SITTING" "XXX" "red" 587 1 1 1
"10_2_2" 2 3 "experimental" 32 "neutral" "SITTING" "XXX" "green" 516 2 2 1
"10_2_2" 2 3 "experimental" 33 "congruent" "SITTING" "RED" "red" 591 1 1 1
"10_2_2" 2 3 "experimental" 34 "incongruent" "SITTING" "RED" "green" 527 2 2 1
"10_2_2" 2 3 "experimental" 35 "congruent" "SITTING" "GREEN" "green" 522 2 2 1
"10_2_2" 2 3 "experimental" 36 "neutral" "SITTING" "XXXXX" "green" 597 2 2 1
"10_2_2" 2 4 "experimental" 1 "congruent" "SITTING" "RED" "red" 758 1 1 1
"10_2_2" 2 4 "experimental" 2 "congruent" "SITTING" "GREEN" "green" 552 2 2 1
"10_2_2" 2 4 "experimental" 3 "neutral" "SITTING" "XXXXX" "red" 498 1 1 1
"10_2_2" 2 4 "experimental" 4 "neutral" "SITTING" "XXX" "red" 486 1 1 1
"10_2_2" 2 4 "experimental" 5 "incongruent" "SITTING" "GREEN" "red" 627 1 1 1
"10_2_2" 2 4 "experimental" 6 "neutral" "SITTING" "XXXXX" "green" 498 2 2 1
"10_2_2" 2 4 "experimental" 7 "congruent" "SITTING" "GREEN" "green" 487 2 2 1
"10_2_2" 2 4 "experimental" 8 "congruent" "SITTING" "RED" "red" 380 1 1 1
"10_2_2" 2 4 "experimental" 9 "incongruent" "SITTING" "RED" "green" 973 2 2 1
"10_2_2" 2 4 "experimental" 10 "incongruent" "SITTING" "GREEN" "red" 986 1 1 1
"10_2_2" 2 4 "experimental" 11 "neutral" "SITTING" "XXX" "green" 750 2 2 1
"10_2_2" 2 4 "experimental" 12 "incongruent" "SITTING" "RED" "green" 720 2 2 1
"10_2_2" 2 4 "experimental" 13 "incongruent" "SITTING" "GREEN" "red" 715 1 1 1
"10_2_2" 2 4 "experimental" 14 "congruent" "SITTING" "GREEN" "green" 726 2 2 1
"10_2_2" 2 4 "experimental" 15 "neutral" "SITTING" "XXXXX" "red" 521 1 1 1
"10_2_2" 2 4 "experimental" 16 "neutral" "SITTING" "XXX" "red" 501 1 1 1
"10_2_2" 2 4 "experimental" 17 "congruent" "SITTING" "RED" "red" 521 1 1 1
"10_2_2" 2 4 "experimental" 18 "incongruent" "SITTING" "RED" "green" 453 2 2 1
"10_2_2" 2 4 "experimental" 19 "neutral" "SITTING" "XXXXX" "green" 523 2 2 1
"10_2_2" 2 4 "experimental" 20 "congruent" "SITTING" "GREEN" "green" 350 2 2 1
"10_2_2" 2 4 "experimental" 21 "incongruent" "SITTING" "GREEN" "red" 505 1 1 1
"10_2_2" 2 4 "experimental" 22 "incongruent" "SITTING" "RED" "green" 357 2 2 1
"10_2_2" 2 4 "experimental" 23 "neutral" "SITTING" "XXX" "green" 423 2 2 1
"10_2_2" 2 4 "experimental" 24 "congruent" "SITTING" "RED" "red" 414 1 1 1
"10_2_2" 2 4 "experimental" 25 "incongruent" "SITTING" "GREEN" "red" 1054 1 1 1
"10_2_2" 2 4 "experimental" 26 "neutral" "SITTING" "XXXXX" "green" 764 2 2 1
"10_2_2" 2 4 "experimental" 27 "incongruent" "SITTING" "RED" "green" 869 2 2 1
"10_2_2" 2 4 "experimental" 28 "congruent" "SITTING" "GREEN" "green" 729 2 2 1
"10_2_2" 2 4 "experimental" 29 "incongruent" "SITTING" "GREEN" "red" 412 1 1 1
"10_2_2" 2 4 "experimental" 30 "incongruent" "SITTING" "RED" "green" 564 2 2 1
"10_2_2" 2 4 "experimental" 31 "neutral" "SITTING" "XXXXX" "red" 325 1 1 1
"10_2_2" 2 4 "experimental" 32 "neutral" "SITTING" "XXX" "green" 417 2 2 1
"10_2_2" 2 4 "experimental" 33 "neutral" "SITTING" "XXX" "red" 634 1 1 1
"10_2_2" 2 4 "experimental" 34 "congruent" "SITTING" "RED" "red" 631 1 1 1
"10_2_2" 2 4 "experimental" 35 "congruent" "SITTING" "RED" "red" 526 1 1 1
"10_2_2" 2 4 "experimental" 36 "congruent" "SITTING" "GREEN" "green" 473 2 2 1
"10_2_2" 2 5 "experimental" 1 "congruent" "SITTING" "RED" "red" 494 1 1 1
"10_2_2" 2 5 "experimental" 2 "incongruent" "SITTING" "GREEN" "red" 411 1 1 1
"10_2_2" 2 5 "experimental" 3 "congruent" "SITTING" "GREEN" "green" 506 2 2 1
"10_2_2" 2 5 "experimental" 4 "neutral" "SITTING" "XXX" "green" 646 2 2 1
"10_2_2" 2 5 "experimental" 5 "neutral" "SITTING" "XXXXX" "green" 892 2 2 1
"10_2_2" 2 5 "experimental" 6 "neutral" "SITTING" "XXX" "red" 528 1 1 1
"10_2_2" 2 5 "experimental" 7 "incongruent" "SITTING" "RED" "green" 523 2 2 1
"10_2_2" 2 5 "experimental" 8 "incongruent" "SITTING" "GREEN" "red" 918 1 1 1
"10_2_2" 2 5 "experimental" 9 "incongruent" "SITTING" "RED" "green" 1121 2 2 1
"10_2_2" 2 5 "experimental" 10 "congruent" "SITTING" "GREEN" "green" 483 2 2 1
"10_2_2" 2 5 "experimental" 11 "congruent" "SITTING" "RED" "red" 640 1 1 1
"10_2_2" 2 5 "experimental" 12 "neutral" "SITTING" "XXXXX" "red" 670 1 1 1
"10_2_2" 2 5 "experimental" 13 "congruent" "SITTING" "GREEN" "green" 556 2 2 1
"10_2_2" 2 5 "experimental" 14 "neutral" "SITTING" "XXX" "red" 381 1 1 1
"10_2_2" 2 5 "experimental" 15 "neutral" "SITTING" "XXXXX" "green" 527 2 2 1
"10_2_2" 2 5 "experimental" 16 "neutral" "SITTING" "XXX" "green" 706 2 2 1
"10_2_2" 2 5 "experimental" 17 "congruent" "SITTING" "RED" "red" 549 1 1 1
"10_2_2" 2 5 "experimental" 18 "incongruent" "SITTING" "GREEN" "red" 767 2 1 0
"10_2_2" 2 5 "experimental" 19 "incongruent" "SITTING" "RED" "green" 952 2 2 1
"10_2_2" 2 5 "experimental" 20 "congruent" "SITTING" "RED" "red" 601 1 1 1
"10_2_2" 2 5 "experimental" 21 "incongruent" "SITTING" "GREEN" "red" 1090 1 1 1
"10_2_2" 2 5 "experimental" 22 "congruent" "SITTING" "GREEN" "green" 1077 2 2 1
"10_2_2" 2 5 "experimental" 23 "neutral" "SITTING" "XXXXX" "red" 841 1 1 1
"10_2_2" 2 5 "experimental" 24 "incongruent" "SITTING" "RED" "green" 759 2 2 1
"10_2_2" 2 5 "experimental" 25 "incongruent" "SITTING" "GREEN" "red" 872 1 1 1
"10_2_2" 2 5 "experimental" 26 "neutral" "SITTING" "XXXXX" "green" 597 2 2 1
"10_2_2" 2 5 "experimental" 27 "neutral" "SITTING" "XXXXX" "red" 484 1 1 1
"10_2_2" 2 5 "experimental" 28 "incongruent" "SITTING" "RED" "green" 737 2 2 1
"10_2_2" 2 5 "experimental" 29 "congruent" "SITTING" "RED" "red" 684 1 1 1
"10_2_2" 2 5 "experimental" 30 "congruent" "SITTING" "GREEN" "green" 553 2 2 1
"10_2_2" 2 5 "experimental" 31 "congruent" "SITTING" "GREEN" "green" 803 2 2 1
"10_2_2" 2 5 "experimental" 32 "congruent" "SITTING" "RED" "red" 579 1 1 1
"10_2_2" 2 5 "experimental" 33 "neutral" "SITTING" "XXX" "green" 884 2 2 1
"10_2_2" 2 5 "experimental" 34 "incongruent" "SITTING" "GREEN" "red" 1200 1 1 1
"10_2_2" 2 5 "experimental" 35 "neutral" "SITTING" "XXX" "red" 559 1 1 1
"10_2_2" 2 5 "experimental" 36 "incongruent" "SITTING" "RED" "green" 488 2 2 1
"10_2_2" 2 7 "experimental" 1 "neutral" "STANDING" "XXXXX" "red" 942 1 1 1
"10_2_2" 2 7 "experimental" 2 "congruent" "STANDING" "RED" "red" 624 1 1 1
"10_2_2" 2 7 "experimental" 3 "neutral" "STANDING" "XXX" "red" 582 1 1 1
"10_2_2" 2 7 "experimental" 4 "incongruent" "STANDING" "GREEN" "red" 943 1 1 1
"10_2_2" 2 7 "experimental" 5 "congruent" "STANDING" "GREEN" "green" 449 2 2 1
"10_2_2" 2 7 "experimental" 6 "incongruent" "STANDING" "RED" "green" 431 2 2 1
"10_2_2" 2 7 "experimental" 7 "incongruent" "STANDING" "GREEN" "red" 550 1 1 1
"10_2_2" 2 7 "experimental" 8 "congruent" "STANDING" "RED" "red" 361 1 1 1
"10_2_2" 2 7 "experimental" 9 "neutral" "STANDING" "XXX" "green" 395 2 2 1
"10_2_2" 2 7 "experimental" 10 "incongruent" "STANDING" "RED" "green" 571 2 2 1
"10_2_2" 2 7 "experimental" 11 "neutral" "STANDING" "XXXXX" "green" 428 2 2 1
"10_2_2" 2 7 "experimental" 12 "congruent" "STANDING" "GREEN" "green" 419 2 2 1
"10_2_2" 2 7 "experimental" 13 "congruent" "STANDING" "RED" "red" 579 1 1 1
"10_2_2" 2 7 "experimental" 14 "congruent" "STANDING" "RED" "red" 636 1 1 1
"10_2_2" 2 7 "experimental" 15 "neutral" "STANDING" "XXX" "red" 611 1 1 1
"10_2_2" 2 7 "experimental" 16 "neutral" "STANDING" "XXXXX" "green" 458 2 2 1
"10_2_2" 2 7 "experimental" 17 "neutral" "STANDING" "XXX" "green" 480 2 2 1
"10_2_2" 2 7 "experimental" 18 "congruent" "STANDING" "GREEN" "green" 525 2 2 1
"10_2_2" 2 7 "experimental" 19 "incongruent" "STANDING" "GREEN" "red" 520 1 1 1
"10_2_2" 2 7 "experimental" 20 "incongruent" "STANDING" "RED" "green" 692 2 2 1
"10_2_2" 2 7 "experimental" 21 "congruent" "STANDING" "GREEN" "green" 416 2 2 1
"10_2_2" 2 7 "experimental" 22 "incongruent" "STANDING" "GREEN" "red" 504 1 1 1
"10_2_2" 2 7 "experimental" 23 "incongruent" "STANDING" "RED" "green" 700 2 2 1
"10_2_2" 2 7 "experimental" 24 "neutral" "STANDING" "XXXXX" "red" 520 1 1 1
"10_2_2" 2 7 "experimental" 25 "congruent" "STANDING" "RED" "red" 380 1 1 1
"10_2_2" 2 7 "experimental" 26 "neutral" "STANDING" "XXXXX" "green" 533 2 2 1
"10_2_2" 2 7 "experimental" 27 "incongruent" "STANDING" "GREEN" "red" 832 1 1 1
"10_2_2" 2 7 "experimental" 28 "incongruent" "STANDING" "RED" "green" 431 2 2 1
"10_2_2" 2 7 "experimental" 29 "congruent" "STANDING" "GREEN" "green" 590 1 2 0
"10_2_2" 2 7 "experimental" 30 "incongruent" "STANDING" "GREEN" "red" 798 1 1 1
"10_2_2" 2 7 "experimental" 31 "neutral" "STANDING" "XXX" "green" 925 2 2 1
"10_2_2" 2 7 "experimental" 32 "congruent" "STANDING" "RED" "red" 783 1 1 1
"10_2_2" 2 7 "experimental" 33 "neutral" "STANDING" "XXXXX" "red" 688 1 1 1
"10_2_2" 2 7 "experimental" 34 "neutral" "STANDING" "XXX" "red" 565 1 1 1
"10_2_2" 2 7 "experimental" 35 "incongruent" "STANDING" "RED" "green" 663 2 2 1
"10_2_2" 2 7 "experimental" 36 "congruent" "STANDING" "GREEN" "green" 619 2 2 1
"10_2_2" 2 8 "experimental" 1 "congruent" "STANDING" "RED" "red" 788 1 1 1
"10_2_2" 2 8 "experimental" 2 "neutral" "STANDING" "XXX" "green" 735 2 2 1
"10_2_2" 2 8 "experimental" 3 "congruent" "STANDING" "GREEN" "green" 559 2 2 1
"10_2_2" 2 8 "experimental" 4 "neutral" "STANDING" "XXXXX" "red" 528 1 1 1
"10_2_2" 2 8 "experimental" 5 "congruent" "STANDING" "RED" "red" 483 1 1 1
"10_2_2" 2 8 "experimental" 6 "neutral" "STANDING" "XXX" "red" 456 1 1 1
"10_2_2" 2 8 "experimental" 7 "incongruent" "STANDING" "GREEN" "red" 782 1 1 1
"10_2_2" 2 8 "experimental" 8 "incongruent" "STANDING" "RED" "green" 606 2 2 1
"10_2_2" 2 8 "experimental" 9 "incongruent" "STANDING" "GREEN" "red" 846 1 1 1
"10_2_2" 2 8 "experimental" 10 "incongruent" "STANDING" "RED" "green" 756 2 2 1
"10_2_2" 2 8 "experimental" 11 "congruent" "STANDING" "GREEN" "green" 661 2 2 1
"10_2_2" 2 8 "experimental" 12 "neutral" "STANDING" "XXXXX" "green" 563 2 2 1
"10_2_2" 2 8 "experimental" 13 "neutral" "STANDING" "XXX" "red" 516 1 1 1
"10_2_2" 2 8 "experimental" 14 "congruent" "STANDING" "RED" "red" 472 1 1 1
"10_2_2" 2 8 "experimental" 15 "neutral" "STANDING" "XXX" "green" 572 2 2 1
"10_2_2" 2 8 "experimental" 16 "incongruent" "STANDING" "GREEN" "red" 870 1 1 1
"10_2_2" 2 8 "experimental" 17 "incongruent" "STANDING" "RED" "green" 1115 2 2 1
"10_2_2" 2 8 "experimental" 18 "neutral" "STANDING" "XXXXX" "red" 653 1 1 1
"10_2_2" 2 8 "experimental" 19 "congruent" "STANDING" "GREEN" "green" 379 2 2 1
"10_2_2" 2 8 "experimental" 20 "congruent" "STANDING" "GREEN" "green" 508 2 2 1
"10_2_2" 2 8 "experimental" 21 "incongruent" "STANDING" "GREEN" "red" 360 1 1 1
"10_2_2" 2 8 "experimental" 22 "congruent" "STANDING" "RED" "red" 642 1 1 1
"10_2_2" 2 8 "experimental" 23 "neutral" "STANDING" "XXXXX" "green" 536 2 2 1
"10_2_2" 2 8 "experimental" 24 "incongruent" "STANDING" "RED" "green" 947 2 2 1
"10_2_2" 2 8 "experimental" 25 "neutral" "STANDING" "XXXXX" "red" 517 1 1 1
"10_2_2" 2 8 "experimental" 26 "incongruent" "STANDING" "GREEN" "red" 920 1 1 1
"10_2_2" 2 8 "experimental" 27 "congruent" "STANDING" "GREEN" "green" 716 2 2 1
"10_2_2" 2 8 "experimental" 28 "congruent" "STANDING" "RED" "red" 638 1 1 1
"10_2_2" 2 8 "experimental" 29 "neutral" "STANDING" "XXX" "red" 484 1 1 1
"10_2_2" 2 8 "experimental" 30 "congruent" "STANDING" "RED" "red" 706 1 1 1
"10_2_2" 2 8 "experimental" 31 "incongruent" "STANDING" "RED" "green" 701 2 2 1
"10_2_2" 2 8 "experimental" 32 "congruent" "STANDING" "GREEN" "green" 825 2 2 1
"10_2_2" 2 8 "experimental" 33 "incongruent" "STANDING" "GREEN" "red" 591 1 1 1
"10_2_2" 2 8 "experimental" 34 "incongruent" "STANDING" "RED" "green" 0 2 0 0
"10_2_2" 2 8 "experimental" 35 "neutral" "STANDING" "XXX" "green" 995 2 2 1
"10_2_2" 2 8 "experimental" 36 "neutral" "STANDING" "XXXXX" "green" 801 2 2 1
"10_2_2" 2 9 "experimental" 1 "congruent" "STANDING" "RED" "red" 986 1 1 1
"10_2_2" 2 9 "experimental" 2 "incongruent" "STANDING" "GREEN" "red" 913 1 1 1
"10_2_2" 2 9 "experimental" 3 "congruent" "STANDING" "GREEN" "green" 548 2 2 1
"10_2_2" 2 9 "experimental" 4 "incongruent" "STANDING" "RED" "green" 1103 2 2 1
"10_2_2" 2 9 "experimental" 5 "congruent" "STANDING" "GREEN" "green" 537 2 2 1
"10_2_2" 2 9 "experimental" 6 "congruent" "STANDING" "RED" "red" 453 1 1 1
"10_2_2" 2 9 "experimental" 7 "neutral" "STANDING" "XXX" "green" 524 2 2 1
"10_2_2" 2 9 "experimental" 8 "neutral" "STANDING" "XXXXX" "red" 511 1 1 1
"10_2_2" 2 9 "experimental" 9 "incongruent" "STANDING" "GREEN" "red" 699 1 1 1
"10_2_2" 2 9 "experimental" 10 "incongruent" "STANDING" "RED" "green" 358 2 2 1
"10_2_2" 2 9 "experimental" 11 "neutral" "STANDING" "XXXXX" "green" 441 2 2 1
"10_2_2" 2 9 "experimental" 12 "neutral" "STANDING" "XXX" "red" 727 1 1 1
"10_2_2" 2 9 "experimental" 13 "incongruent" "STANDING" "GREEN" "red" 906 1 1 1
"10_2_2" 2 9 "experimental" 14 "incongruent" "STANDING" "RED" "green" 373 2 2 1
"10_2_2" 2 9 "experimental" 15 "neutral" "STANDING" "XXXXX" "red" 519 1 1 1
"10_2_2" 2 9 "experimental" 16 "neutral" "STANDING" "XXX" "red" 524 1 1 1
"10_2_2" 2 9 "experimental" 17 "congruent" "STANDING" "GREEN" "green" 526 2 2 1
"10_2_2" 2 9 "experimental" 18 "incongruent" "STANDING" "GREEN" "red" 881 1 1 1
"10_2_2" 2 9 "experimental" 19 "congruent" "STANDING" "GREEN" "green" 894 2 2 1
"10_2_2" 2 9 "experimental" 20 "incongruent" "STANDING" "RED" "green" 633 2 2 1
"10_2_2" 2 9 "experimental" 21 "neutral" "STANDING" "XXXXX" "green" 680 2 2 1
"10_2_2" 2 9 "experimental" 22 "congruent" "STANDING" "RED" "red" 725 1 1 1
"10_2_2" 2 9 "experimental" 23 "congruent" "STANDING" "RED" "red" 471 1 1 1
"10_2_2" 2 9 "experimental" 24 "neutral" "STANDING" "XXX" "green" 453 2 2 1
"10_2_2" 2 9 "experimental" 25 "neutral" "STANDING" "XXXXX" "green" 460 2 2 1
"10_2_2" 2 9 "experimental" 26 "congruent" "STANDING" "GREEN" "green" 417 2 2 1
"10_2_2" 2 9 "experimental" 27 "congruent" "STANDING" "RED" "red" 385 1 1 1
"10_2_2" 2 9 "experimental" 28 "congruent" "STANDING" "GREEN" "green" 466 2 2 1
"10_2_2" 2 9 "experimental" 29 "incongruent" "STANDING" "GREEN" "red" 840 1 1 1
"10_2_2" 2 9 "experimental" 30 "neutral" "STANDING" "XXX" "red" 526 1 1 1
"10_2_2" 2 9 "experimental" 31 "congruent" "STANDING" "RED" "red" 489 1 1 1
"10_2_2" 2 9 "experimental" 32 "incongruent" "STANDING" "RED" "green" 622 2 2 1
"10_2_2" 2 9 "experimental" 33 "neutral" "STANDING" "XXX" "green" 447 2 2 1
"10_2_2" 2 9 "experimental" 34 "incongruent" "STANDING" "GREEN" "red" 437 1 1 1
"10_2_2" 2 9 "experimental" 35 "incongruent" "STANDING" "RED" "green" 403 2 2 1
"10_2_2" 2 9 "experimental" 36 "neutral" "STANDING" "XXXXX" "red" 524 1 1 1
"10_2_2" 2 10 "experimental" 1 "neutral" "STANDING" "XXXXX" "green" 647 2 2 1
"10_2_2" 2 10 "experimental" 2 "neutral" "STANDING" "XXX" "red" 365 1 1 1
"10_2_2" 2 10 "experimental" 3 "neutral" "STANDING" "XXX" "green" 391 2 2 1
"10_2_2" 2 10 "experimental" 4 "neutral" "STANDING" "XXXXX" "red" 472 1 1 1
"10_2_2" 2 10 "experimental" 5 "incongruent" "STANDING" "GREEN" "red" 494 1 1 1
"10_2_2" 2 10 "experimental" 6 "congruent" "STANDING" "GREEN" "green" 498 2 2 1
"10_2_2" 2 10 "experimental" 7 "incongruent" "STANDING" "RED" "green" 991 2 2 1
"10_2_2" 2 10 "experimental" 8 "congruent" "STANDING" "GREEN" "green" 543 2 2 1
"10_2_2" 2 10 "experimental" 9 "congruent" "STANDING" "RED" "red" 513 1 1 1
"10_2_2" 2 10 "experimental" 10 "incongruent" "STANDING" "GREEN" "red" 861 1 1 1
"10_2_2" 2 10 "experimental" 11 "incongruent" "STANDING" "RED" "green" 634 2 2 1
"10_2_2" 2 10 "experimental" 12 "congruent" "STANDING" "RED" "red" 697 1 1 1
"10_2_2" 2 10 "experimental" 13 "incongruent" "STANDING" "GREEN" "red" 661 1 1 1
"10_2_2" 2 10 "experimental" 14 "congruent" "STANDING" "GREEN" "green" 394 2 2 1
"10_2_2" 2 10 "experimental" 15 "neutral" "STANDING" "XXX" "red" 475 1 1 1
"10_2_2" 2 10 "experimental" 16 "incongruent" "STANDING" "RED" "green" 352 2 2 1
"10_2_2" 2 10 "experimental" 17 "neutral" "STANDING" "XXXXX" "red" 586 1 1 1
"10_2_2" 2 10 "experimental" 18 "congruent" "STANDING" "GREEN" "green" 499 2 2 1
"10_2_2" 2 10 "experimental" 19 "congruent" "STANDING" "RED" "red" 385 1 1 1
"10_2_2" 2 10 "experimental" 20 "incongruent" "STANDING" "GREEN" "red" 793 1 1 1
"10_2_2" 2 10 "experimental" 21 "congruent" "STANDING" "RED" "red" 353 1 1 1
"10_2_2" 2 10 "experimental" 22 "neutral" "STANDING" "XXX" "green" 395 2 2 1
"10_2_2" 2 10 "experimental" 23 "neutral" "STANDING" "XXXXX" "green" 364 2 2 1
"10_2_2" 2 10 "experimental" 24 "incongruent" "STANDING" "RED" "green" 862 2 2 1
"10_2_2" 2 10 "experimental" 25 "congruent" "STANDING" "GREEN" "green" 1147 2 2 1
"10_2_2" 2 10 "experimental" 26 "congruent" "STANDING" "RED" "red" 372 1 1 1
"10_2_2" 2 10 "experimental" 27 "neutral" "STANDING" "XXXXX" "red" 526 1 1 1
"10_2_2" 2 10 "experimental" 28 "congruent" "STANDING" "RED" "red" 465 1 1 1
"10_2_2" 2 10 "experimental" 29 "incongruent" "STANDING" "GREEN" "red" 863 1 1 1
"10_2_2" 2 10 "experimental" 30 "incongruent" "STANDING" "RED" "green" 612 2 2 1
"10_2_2" 2 10 "experimental" 31 "neutral" "STANDING" "XXX" "green" 467 2 2 1
"10_2_2" 2 10 "experimental" 32 "neutral" "STANDING" "XXX" "red" 657 1 1 1
"10_2_2" 2 10 "experimental" 33 "neutral" "STANDING" "XXXXX" "green" 527 2 2 1
"10_2_2" 2 10 "experimental" 34 "congruent" "STANDING" "GREEN" "green" 418 2 2 1
"10_2_2" 2 10 "experimental" 35 "incongruent" "STANDING" "GREEN" "red" 481 1 1 1
"10_2_2" 2 10 "experimental" 36 "incongruent" "STANDING" "RED" "green" 870 2 2 1
"11_1_1" 1 2 "experimental" 1 "congruent" "STANDING" "RED" "red" 858 1 1 1
"11_1_1" 1 2 "experimental" 2 "incongruent" "STANDING" "RED" "green" 463 2 2 1
"11_1_1" 1 2 "experimental" 3 "congruent" "STANDING" "GREEN" "green" 477 2 2 1
"11_1_1" 1 2 "experimental" 4 "congruent" "STANDING" "RED" "red" 338 1 1 1
"11_1_1" 1 2 "experimental" 5 "incongruent" "STANDING" "GREEN" "red" 414 1 1 1
"11_1_1" 1 2 "experimental" 6 "neutral" "STANDING" "XXXXX" "red" 382 1 1 1
"11_1_1" 1 2 "experimental" 7 "congruent" "STANDING" "GREEN" "green" 575 2 2 1
"11_1_1" 1 2 "experimental" 8 "neutral" "STANDING" "XXX" "red" 424 1 1 1
"11_1_1" 1 2 "experimental" 9 "incongruent" "STANDING" "RED" "green" 351 2 2 1
"11_1_1" 1 2 "experimental" 10 "neutral" "STANDING" "XXXXX" "green" 466 2 2 1
"11_1_1" 1 2 "experimental" 11 "neutral" "STANDING" "XXX" "green" 471 2 2 1
"11_1_1" 1 2 "experimental" 12 "incongruent" "STANDING" "GREEN" "red" 477 1 1 1
"11_1_1" 1 2 "experimental" 13 "incongruent" "STANDING" "RED" "green" 482 2 2 1
"11_1_1" 1 2 "experimental" 14 "congruent" "STANDING" "RED" "red" 384 1 1 1
"11_1_1" 1 2 "experimental" 15 "congruent" "STANDING" "GREEN" "green" 489 2 2 1
"11_1_1" 1 2 "experimental" 16 "neutral" "STANDING" "XXXXX" "red" 429 1 1 1
"11_1_1" 1 2 "experimental" 17 "incongruent" "STANDING" "GREEN" "red" 420 1 1 1
"11_1_1" 1 2 "experimental" 18 "congruent" "STANDING" "RED" "red" 380 1 1 1
"11_1_1" 1 2 "experimental" 19 "incongruent" "STANDING" "RED" "green" 317 2 2 1
"11_1_1" 1 2 "experimental" 20 "incongruent" "STANDING" "GREEN" "red" 353 1 1 1
"11_1_1" 1 2 "experimental" 21 "neutral" "STANDING" "XXX" "red" 364 1 1 1
"11_1_1" 1 2 "experimental" 22 "neutral" "STANDING" "XXX" "green" 486 2 2 1
"11_1_1" 1 2 "experimental" 23 "neutral" "STANDING" "XXXXX" "green" 523 2 2 1
"11_1_1" 1 2 "experimental" 24 "congruent" "STANDING" "GREEN" "green" 446 2 2 1
"11_1_1" 1 2 "experimental" 25 "congruent" "STANDING" "RED" "red" 413 1 1 1
"11_1_1" 1 2 "experimental" 26 "neutral" "STANDING" "XXX" "green" 509 2 2 1
"11_1_1" 1 2 "experimental" 27 "incongruent" "STANDING" "RED" "green" 512 2 2 1
"11_1_1" 1 2 "experimental" 28 "incongruent" "STANDING" "GREEN" "red" 252 1 1 1
"11_1_1" 1 2 "experimental" 29 "neutral" "STANDING" "XXXXX" "red" 435 1 1 1
"11_1_1" 1 2 "experimental" 30 "congruent" "STANDING" "GREEN" "green" 554 2 2 1
"11_1_1" 1 2 "experimental" 31 "neutral" "STANDING" "XXXXX" "green" 508 2 2 1
"11_1_1" 1 2 "experimental" 32 "neutral" "STANDING" "XXX" "red" 352 1 1 1
"11_1_1" 1 2 "experimental" 33 "congruent" "STANDING" "RED" "red" 379 1 1 1
"11_1_1" 1 2 "experimental" 34 "incongruent" "STANDING" "RED" "green" 484 2 2 1
"11_1_1" 1 2 "experimental" 35 "congruent" "STANDING" "GREEN" "green" 625 2 2 1
"11_1_1" 1 2 "experimental" 36 "incongruent" "STANDING" "GREEN" "red" 384 1 1 1
"11_1_1" 1 3 "experimental" 1 "incongruent" "STANDING" "RED" "green" 457 2 2 1
"11_1_1" 1 3 "experimental" 2 "neutral" "STANDING" "XXXXX" "red" 318 1 1 1
"11_1_1" 1 3 "experimental" 3 "neutral" "STANDING" "XXX" "green" 459 2 2 1
"11_1_1" 1 3 "experimental" 4 "incongruent" "STANDING" "GREEN" "red" 385 1 1 1
"11_1_1" 1 3 "experimental" 5 "congruent" "STANDING" "RED" "red" 458 1 1 1
"11_1_1" 1 3 "experimental" 6 "neutral" "STANDING" "XXXXX" "green" 440 2 2 1
"11_1_1" 1 3 "experimental" 7 "congruent" "STANDING" "GREEN" "green" 438 2 2 1
"11_1_1" 1 3 "experimental" 8 "neutral" "STANDING" "XXX" "red" 397 1 1 1
"11_1_1" 1 3 "experimental" 9 "congruent" "STANDING" "RED" "red" 398 1 1 1
"11_1_1" 1 3 "experimental" 10 "congruent" "STANDING" "GREEN" "green" 423 2 2 1
"11_1_1" 1 3 "experimental" 11 "incongruent" "STANDING" "RED" "green" 422 2 2 1
"11_1_1" 1 3 "experimental" 12 "incongruent" "STANDING" "GREEN" "red" 614 1 1 1
"11_1_1" 1 3 "experimental" 13 "incongruent" "STANDING" "RED" "green" 485 2 2 1
"11_1_1" 1 3 "experimental" 14 "incongruent" "STANDING" "GREEN" "red" 658 1 1 1
"11_1_1" 1 3 "experimental" 15 "congruent" "STANDING" "RED" "red" 368 1 1 1
"11_1_1" 1 3 "experimental" 16 "neutral" "STANDING" "XXXXX" "red" 386 1 1 1
"11_1_1" 1 3 "experimental" 17 "incongruent" "STANDING" "RED" "green" 428 2 2 1
"11_1_1" 1 3 "experimental" 18 "congruent" "STANDING" "RED" "red" 363 1 1 1
"11_1_1" 1 3 "experimental" 19 "congruent" "STANDING" "GREEN" "green" 389 2 2 1
"11_1_1" 1 3 "experimental" 20 "neutral" "STANDING" "XXX" "red" 469 1 1 1
"11_1_1" 1 3 "experimental" 21 "incongruent" "STANDING" "GREEN" "red" 363 1 1 1
"11_1_1" 1 3 "experimental" 22 "congruent" "STANDING" "GREEN" "green" 421 2 2 1
"11_1_1" 1 3 "experimental" 23 "neutral" "STANDING" "XXX" "green" 477 2 2 1
"11_1_1" 1 3 "experimental" 24 "neutral" "STANDING" "XXXXX" "green" 434 2 2 1
"11_1_1" 1 3 "experimental" 25 "congruent" "STANDING" "RED" "red" 257 1 1 1
"11_1_1" 1 3 "experimental" 26 "incongruent" "STANDING" "RED" "green" 350 2 2 1
"11_1_1" 1 3 "experimental" 27 "neutral" "STANDING" "XXX" "green" 362 2 2 1
"11_1_1" 1 3 "experimental" 28 "incongruent" "STANDING" "GREEN" "red" 308 1 1 1
"11_1_1" 1 3 "experimental" 29 "incongruent" "STANDING" "RED" "green" 392 2 2 1
"11_1_1" 1 3 "experimental" 30 "congruent" "STANDING" "GREEN" "green" 361 2 2 1
"11_1_1" 1 3 "experimental" 31 "neutral" "STANDING" "XXXXX" "red" 459 1 1 1
"11_1_1" 1 3 "experimental" 32 "congruent" "STANDING" "GREEN" "green" 513 2 2 1
"11_1_1" 1 3 "experimental" 33 "neutral" "STANDING" "XXXXX" "green" 460 2 2 1
"11_1_1" 1 3 "experimental" 34 "neutral" "STANDING" "XXX" "red" 610 1 1 1
"11_1_1" 1 3 "experimental" 35 "congruent" "STANDING" "RED" "red" 537 1 1 1
"11_1_1" 1 3 "experimental" 36 "incongruent" "STANDING" "GREEN" "red" 500 1 1 1
"11_1_1" 1 4 "experimental" 1 "congruent" "STANDING" "GREEN" "green" 481 2 2 1
"11_1_1" 1 4 "experimental" 2 "neutral" "STANDING" "XXXXX" "red" 614 1 1 1
"11_1_1" 1 4 "experimental" 3 "incongruent" "STANDING" "RED" "green" 565 2 2 1
"11_1_1" 1 4 "experimental" 4 "congruent" "STANDING" "GREEN" "green" 447 2 2 1
"11_1_1" 1 4 "experimental" 5 "congruent" "STANDING" "RED" "red" 430 1 1 1
"11_1_1" 1 4 "experimental" 6 "incongruent" "STANDING" "GREEN" "red" 485 1 1 1
"11_1_1" 1 4 "experimental" 7 "neutral" "STANDING" "XXXXX" "green" 410 2 2 1
"11_1_1" 1 4 "experimental" 8 "neutral" "STANDING" "XXX" "green" 650 2 2 1
"11_1_1" 1 4 "experimental" 9 "incongruent" "STANDING" "RED" "green" 472 2 2 1
"11_1_1" 1 4 "experimental" 10 "incongruent" "STANDING" "GREEN" "red" 333 1 1 1
"11_1_1" 1 4 "experimental" 11 "neutral" "STANDING" "XXX" "red" 352 1 1 1
"11_1_1" 1 4 "experimental" 12 "congruent" "STANDING" "RED" "red" 331 1 1 1
"11_1_1" 1 4 "experimental" 13 "neutral" "STANDING" "XXXXX" "green" 550 2 2 1
"11_1_1" 1 4 "experimental" 14 "neutral" "STANDING" "XXX" "green" 418 2 2 1
"11_1_1" 1 4 "experimental" 15 "congruent" "STANDING" "GREEN" "green" 440 2 2 1
"11_1_1" 1 4 "experimental" 16 "incongruent" "STANDING" "RED" "green" 447 2 2 1
"11_1_1" 1 4 "experimental" 17 "neutral" "STANDING" "XXX" "red" 277 1 1 1
"11_1_1" 1 4 "experimental" 18 "incongruent" "STANDING" "GREEN" "red" 339 1 1 1
"11_1_1" 1 4 "experimental" 19 "congruent" "STANDING" "RED" "red" 286 1 1 1
"11_1_1" 1 4 "experimental" 20 "congruent" "STANDING" "RED" "red" 371 1 1 1
"11_1_1" 1 4 "experimental" 21 "incongruent" "STANDING" "RED" "green" 285 2 2 1
"11_1_1" 1 4 "experimental" 22 "neutral" "STANDING" "XXXXX" "red" 355 1 1 1
"11_1_1" 1 4 "experimental" 23 "incongruent" "STANDING" "GREEN" "red" 269 1 1 1
"11_1_1" 1 4 "experimental" 24 "congruent" "STANDING" "GREEN" "green" 459 2 2 1
"11_1_1" 1 4 "experimental" 25 "neutral" "STANDING" "XXX" "red" 425 1 1 1
"11_1_1" 1 4 "experimental" 26 "incongruent" "STANDING" "RED" "green" 448 2 2 1
"11_1_1" 1 4 "experimental" 27 "congruent" "STANDING" "RED" "red" 327 1 1 1
"11_1_1" 1 4 "experimental" 28 "congruent" "STANDING" "GREEN" "green" 490 2 2 1
"11_1_1" 1 4 "experimental" 29 "incongruent" "STANDING" "GREEN" "red" 335 1 1 1
"11_1_1" 1 4 "experimental" 30 "neutral" "STANDING" "XXXXX" "red" 538 1 1 1
"11_1_1" 1 4 "experimental" 31 "neutral" "STANDING" "XXXXX" "green" 413 2 2 1
"11_1_1" 1 4 "experimental" 32 "neutral" "STANDING" "XXX" "green" 429 2 2 1
"11_1_1" 1 4 "experimental" 33 "incongruent" "STANDING" "RED" "green" 532 2 2 1
"11_1_1" 1 4 "experimental" 34 "incongruent" "STANDING" "GREEN" "red" 319 1 1 1
"11_1_1" 1 4 "experimental" 35 "congruent" "STANDING" "RED" "red" 299 1 1 1
"11_1_1" 1 4 "experimental" 36 "congruent" "STANDING" "GREEN" "green" 376 2 2 1
"11_1_1" 1 5 "experimental" 1 "incongruent" "STANDING" "RED" "green" 281 2 2 1
"11_1_1" 1 5 "experimental" 2 "congruent" "STANDING" "RED" "red" 368 1 1 1
"11_1_1" 1 5 "experimental" 3 "neutral" "STANDING" "XXXXX" "red" 257 1 1 1
"11_1_1" 1 5 "experimental" 4 "incongruent" "STANDING" "GREEN" "red" 295 1 1 1
"11_1_1" 1 5 "experimental" 5 "incongruent" "STANDING" "RED" "green" 468 2 2 1
"11_1_1" 1 5 "experimental" 6 "neutral" "STANDING" "XXX" "red" 681 1 1 1
"11_1_1" 1 5 "experimental" 7 "congruent" "STANDING" "GREEN" "green" 334 2 2 1
"11_1_1" 1 5 "experimental" 8 "neutral" "STANDING" "XXX" "green" 457 2 2 1
"11_1_1" 1 5 "experimental" 9 "incongruent" "STANDING" "GREEN" "red" 279 1 1 1
"11_1_1" 1 5 "experimental" 10 "congruent" "STANDING" "RED" "red" 589 1 1 1
"11_1_1" 1 5 "experimental" 11 "congruent" "STANDING" "GREEN" "green" 398 2 2 1
"11_1_1" 1 5 "experimental" 12 "neutral" "STANDING" "XXXXX" "green" 350 2 2 1
"11_1_1" 1 5 "experimental" 13 "incongruent" "STANDING" "RED" "green" 801 2 2 1
"11_1_1" 1 5 "experimental" 14 "incongruent" "STANDING" "GREEN" "red" 353 1 1 1
"11_1_1" 1 5 "experimental" 15 "incongruent" "STANDING" "RED" "green" 299 2 2 1
"11_1_1" 1 5 "experimental" 16 "congruent" "STANDING" "RED" "red" 416 1 1 1
"11_1_1" 1 5 "experimental" 17 "neutral" "STANDING" "XXX" "green" 424 2 2 1
"11_1_1" 1 5 "experimental" 18 "congruent" "STANDING" "RED" "red" 263 1 1 1
"11_1_1" 1 5 "experimental" 19 "congruent" "STANDING" "GREEN" "green" 461 2 2 1
"11_1_1" 1 5 "experimental" 20 "neutral" "STANDING" "XXXXX" "red" 283 1 1 1
"11_1_1" 1 5 "experimental" 21 "neutral" "STANDING" "XXX" "red" 305 1 1 1
"11_1_1" 1 5 "experimental" 22 "incongruent" "STANDING" "GREEN" "red" 317 1 1 1
"11_1_1" 1 5 "experimental" 23 "congruent" "STANDING" "GREEN" "green" 313 2 2 1
"11_1_1" 1 5 "experimental" 24 "neutral" "STANDING" "XXXXX" "green" 573 2 2 1
"11_1_1" 1 5 "experimental" 25 "congruent" "STANDING" "RED" "red" 366 1 1 1
"11_1_1" 1 5 "experimental" 26 "incongruent" "STANDING" "RED" "green" 467 2 2 1
"11_1_1" 1 5 "experimental" 27 "neutral" "STANDING" "XXX" "green" 422 2 2 1
"11_1_1" 1 5 "experimental" 28 "congruent" "STANDING" "RED" "red" 365 1 1 1
"11_1_1" 1 5 "experimental" 29 "neutral" "STANDING" "XXXXX" "red" 423 1 1 1
"11_1_1" 1 5 "experimental" 30 "incongruent" "STANDING" "GREEN" "red" 703 1 1 1
"11_1_1" 1 5 "experimental" 31 "neutral" "STANDING" "XXXXX" "green" 346 2 2 1
"11_1_1" 1 5 "experimental" 32 "congruent" "STANDING" "GREEN" "green" 413 2 2 1
"11_1_1" 1 5 "experimental" 33 "congruent" "STANDING" "GREEN" "green" 437 2 2 1
"11_1_1" 1 5 "experimental" 34 "incongruent" "STANDING" "RED" "green" 500 2 2 1
"11_1_1" 1 5 "experimental" 35 "neutral" "STANDING" "XXX" "red" 305 1 1 1
"11_1_1" 1 5 "experimental" 36 "incongruent" "STANDING" "GREEN" "red" 309 1 1 1
"11_1_1" 1 7 "experimental" 1 "incongruent" "SITTING" "RED" "green" 696 2 2 1
"11_1_1" 1 7 "experimental" 2 "congruent" "SITTING" "RED" "red" 316 1 1 1
"11_1_1" 1 7 "experimental" 3 "incongruent" "SITTING" "GREEN" "red" 808 1 1 1
"11_1_1" 1 7 "experimental" 4 "neutral" "SITTING" "XXX" "green" 424 2 2 1
"11_1_1" 1 7 "experimental" 5 "neutral" "SITTING" "XXXXX" "red" 471 1 1 1
"11_1_1" 1 7 "experimental" 6 "congruent" "SITTING" "GREEN" "green" 549 2 2 1
"11_1_1" 1 7 "experimental" 7 "incongruent" "SITTING" "RED" "green" 487 2 2 1
"11_1_1" 1 7 "experimental" 8 "congruent" "SITTING" "RED" "red" 332 1 1 1
"11_1_1" 1 7 "experimental" 9 "incongruent" "SITTING" "GREEN" "red" 703 1 1 1
"11_1_1" 1 7 "experimental" 10 "congruent" "SITTING" "GREEN" "green" 491 2 2 1
"11_1_1" 1 7 "experimental" 11 "neutral" "SITTING" "XXXXX" "green" 752 2 2 1
"11_1_1" 1 7 "experimental" 12 "neutral" "SITTING" "XXX" "red" 386 1 1 1
"11_1_1" 1 7 "experimental" 13 "neutral" "SITTING" "XXX" "green" 491 2 2 1
"11_1_1" 1 7 "experimental" 14 "neutral" "SITTING" "XXXXX" "green" 567 2 2 1
"11_1_1" 1 7 "experimental" 15 "incongruent" "SITTING" "RED" "green" 457 2 2 1
"11_1_1" 1 7 "experimental" 16 "congruent" "SITTING" "RED" "red" 399 1 1 1
"11_1_1" 1 7 "experimental" 17 "incongruent" "SITTING" "GREEN" "red" 375 1 1 1
"11_1_1" 1 7 "experimental" 18 "congruent" "SITTING" "GREEN" "green" 402 2 2 1
"11_1_1" 1 7 "experimental" 19 "congruent" "SITTING" "RED" "red" 345 1 1 1
"11_1_1" 1 7 "experimental" 20 "incongruent" "SITTING" "RED" "green" 324 2 2 1
"11_1_1" 1 7 "experimental" 21 "neutral" "SITTING" "XXX" "red" 583 1 1 1
"11_1_1" 1 7 "experimental" 22 "neutral" "SITTING" "XXXXX" "red" 352 1 1 1
"11_1_1" 1 7 "experimental" 23 "incongruent" "SITTING" "GREEN" "red" 339 1 1 1
"11_1_1" 1 7 "experimental" 24 "congruent" "SITTING" "GREEN" "green" 382 2 2 1
"11_1_1" 1 7 "experimental" 25 "neutral" "SITTING" "XXXXX" "green" 471 2 2 1
"11_1_1" 1 7 "experimental" 26 "neutral" "SITTING" "XXXXX" "red" 717 1 1 1
"11_1_1" 1 7 "experimental" 27 "neutral" "SITTING" "XXX" "red" 369 1 1 1
"11_1_1" 1 7 "experimental" 28 "congruent" "SITTING" "RED" "red" 331 1 1 1
"11_1_1" 1 7 "experimental" 29 "congruent" "SITTING" "GREEN" "green" 406 2 2 1
"11_1_1" 1 7 "experimental" 30 "congruent" "SITTING" "RED" "red" 358 1 1 1
"11_1_1" 1 7 "experimental" 31 "neutral" "SITTING" "XXX" "green" 416 2 2 1
"11_1_1" 1 7 "experimental" 32 "incongruent" "SITTING" "RED" "green" 480 2 2 1
"11_1_1" 1 7 "experimental" 33 "incongruent" "SITTING" "GREEN" "red" 389 1 1 1
"11_1_1" 1 7 "experimental" 34 "incongruent" "SITTING" "RED" "green" 470 2 2 1
"11_1_1" 1 7 "experimental" 35 "congruent" "SITTING" "GREEN" "green" 500 2 2 1
"11_1_1" 1 7 "experimental" 36 "incongruent" "SITTING" "GREEN" "red" 464 1 1 1
"11_1_1" 1 8 "experimental" 1 "congruent" "SITTING" "RED" "red" 510 1 1 1
"11_1_1" 1 8 "experimental" 2 "incongruent" "SITTING" "RED" "green" 466 2 2 1
"11_1_1" 1 8 "experimental" 3 "neutral" "SITTING" "XXXXX" "green" 463 2 2 1
"11_1_1" 1 8 "experimental" 4 "neutral" "SITTING" "XXXXX" "red" 317 1 1 1
"11_1_1" 1 8 "experimental" 5 "congruent" "SITTING" "GREEN" "green" 489 2 2 1
"11_1_1" 1 8 "experimental" 6 "incongruent" "SITTING" "GREEN" "red" 451 1 1 1
"11_1_1" 1 8 "experimental" 7 "neutral" "SITTING" "XXX" "green" 452 2 2 1
"11_1_1" 1 8 "experimental" 8 "incongruent" "SITTING" "RED" "green" 595 2 2 1
"11_1_1" 1 8 "experimental" 9 "neutral" "SITTING" "XXX" "red" 339 1 1 1
"11_1_1" 1 8 "experimental" 10 "incongruent" "SITTING" "GREEN" "red" 694 1 1 1
"11_1_1" 1 8 "experimental" 11 "congruent" "SITTING" "RED" "red" 362 1 1 1
"11_1_1" 1 8 "experimental" 12 "congruent" "SITTING" "GREEN" "green" 475 2 2 1
"11_1_1" 1 8 "experimental" 13 "incongruent" "SITTING" "RED" "green" 512 2 2 1
"11_1_1" 1 8 "experimental" 14 "congruent" "SITTING" "RED" "red" 692 1 1 1
"11_1_1" 1 8 "experimental" 15 "congruent" "SITTING" "GREEN" "green" 456 2 2 1
"11_1_1" 1 8 "experimental" 16 "congruent" "SITTING" "RED" "red" 461 1 1 1
"11_1_1" 1 8 "experimental" 17 "neutral" "SITTING" "XXX" "green" 396 2 2 1
"11_1_1" 1 8 "experimental" 18 "neutral" "SITTING" "XXXXX" "green" 668 2 2 1
"11_1_1" 1 8 "experimental" 19 "incongruent" "SITTING" "GREEN" "red" 322 1 1 1
"11_1_1" 1 8 "experimental" 20 "incongruent" "SITTING" "RED" "green" 317 2 2 1
"11_1_1" 1 8 "experimental" 21 "neutral" "SITTING" "XXX" "red" 330 1 1 1
"11_1_1" 1 8 "experimental" 22 "congruent" "SITTING" "GREEN" "green" 413 2 2 1
"11_1_1" 1 8 "experimental" 23 "incongruent" "SITTING" "GREEN" "red" 381 1 1 1
"11_1_1" 1 8 "experimental" 24 "neutral" "SITTING" "XXXXX" "red" 806 1 1 1
"11_1_1" 1 8 "experimental" 25 "neutral" "SITTING" "XXX" "red" 390 1 1 1
"11_1_1" 1 8 "experimental" 26 "neutral" "SITTING" "XXX" "green" 463 2 2 1
"11_1_1" 1 8 "experimental" 27 "incongruent" "SITTING" "RED" "green" 453 2 2 1
"11_1_1" 1 8 "experimental" 28 "incongruent" "SITTING" "GREEN" "red" 434 1 1 1
"11_1_1" 1 8 "experimental" 29 "congruent" "SITTING" "RED" "red" 434 1 1 1
"11_1_1" 1 8 "experimental" 30 "neutral" "SITTING" "XXXXX" "red" 385 1 1 1
"11_1_1" 1 8 "experimental" 31 "incongruent" "SITTING" "RED" "green" 323 2 2 1
"11_1_1" 1 8 "experimental" 32 "congruent" "SITTING" "GREEN" "green" 422 2 2 1
"11_1_1" 1 8 "experimental" 33 "neutral" "SITTING" "XXXXX" "green" 420 2 2 1
"11_1_1" 1 8 "experimental" 34 "congruent" "SITTING" "RED" "red" 372 1 1 1
"11_1_1" 1 8 "experimental" 35 "congruent" "SITTING" "GREEN" "green" 455 2 2 1
"11_1_1" 1 8 "experimental" 36 "incongruent" "SITTING" "GREEN" "red" 301 1 1 1
"11_1_1" 1 9 "experimental" 1 "neutral" "SITTING" "XXX" "green" 409 2 2 1
"11_1_1" 1 9 "experimental" 2 "incongruent" "SITTING" "RED" "green" 425 2 2 1
"11_1_1" 1 9 "experimental" 3 "congruent" "SITTING" "RED" "red" 456 1 1 1
"11_1_1" 1 9 "experimental" 4 "incongruent" "SITTING" "GREEN" "red" 382 1 1 1
"11_1_1" 1 9 "experimental" 5 "neutral" "SITTING" "XXXXX" "red" 967 1 1 1
"11_1_1" 1 9 "experimental" 6 "congruent" "SITTING" "GREEN" "green" 424 2 2 1
"11_1_1" 1 9 "experimental" 7 "neutral" "SITTING" "XXXXX" "green" 471 2 2 1
"11_1_1" 1 9 "experimental" 8 "congruent" "SITTING" "RED" "red" 421 1 1 1
"11_1_1" 1 9 "experimental" 9 "neutral" "SITTING" "XXX" "red" 517 1 1 1
"11_1_1" 1 9 "experimental" 10 "congruent" "SITTING" "GREEN" "green" 456 2 2 1
"11_1_1" 1 9 "experimental" 11 "incongruent" "SITTING" "RED" "green" 614 2 2 1
"11_1_1" 1 9 "experimental" 12 "incongruent" "SITTING" "GREEN" "red" 750 1 1 1
"11_1_1" 1 9 "experimental" 13 "incongruent" "SITTING" "RED" "green" 432 2 2 1
"11_1_1" 1 9 "experimental" 14 "neutral" "SITTING" "XXXXX" "red" 383 1 1 1
"11_1_1" 1 9 "experimental" 15 "incongruent" "SITTING" "GREEN" "red" 496 1 1 1
"11_1_1" 1 9 "experimental" 16 "incongruent" "SITTING" "RED" "green" 388 2 2 1
"11_1_1" 1 9 "experimental" 17 "neutral" "SITTING" "XXX" "green" 869 2 2 1
"11_1_1" 1 9 "experimental" 18 "congruent" "SITTING" "RED" "red" 346 1 1 1
"11_1_1" 1 9 "experimental" 19 "neutral" "SITTING" "XXX" "red" 437 1 1 1
"11_1_1" 1 9 "experimental" 20 "congruent" "SITTING" "GREEN" "green" 420 2 2 1
"11_1_1" 1 9 "experimental" 21 "neutral" "SITTING" "XXXXX" "green" 620 2 2 1
"11_1_1" 1 9 "experimental" 22 "incongruent" "SITTING" "GREEN" "red" 331 1 1 1
"11_1_1" 1 9 "experimental" 23 "congruent" "SITTING" "RED" "red" 375 1 1 1
"11_1_1" 1 9 "experimental" 24 "congruent" "SITTING" "GREEN" "green" 456 2 2 1
"11_1_1" 1 9 "experimental" 25 "neutral" "SITTING" "XXX" "red" 526 1 1 1
"11_1_1" 1 9 "experimental" 26 "neutral" "SITTING" "XXXXX" "red" 489 1 1 1
"11_1_1" 1 9 "experimental" 27 "congruent" "SITTING" "RED" "red" 285 1 1 1
"11_1_1" 1 9 "experimental" 28 "neutral" "SITTING" "XXXXX" "green" 451 2 2 1
"11_1_1" 1 9 "experimental" 29 "congruent" "SITTING" "RED" "red" 537 1 1 1
"11_1_1" 1 9 "experimental" 30 "congruent" "SITTING" "GREEN" "green" 308 2 2 1
"11_1_1" 1 9 "experimental" 31 "incongruent" "SITTING" "RED" "green" 520 2 2 1
"11_1_1" 1 9 "experimental" 32 "congruent" "SITTING" "GREEN" "green" 372 2 2 1
"11_1_1" 1 9 "experimental" 33 "incongruent" "SITTING" "GREEN" "red" 421 1 1 1
"11_1_1" 1 9 "experimental" 34 "incongruent" "SITTING" "RED" "green" 525 2 2 1
"11_1_1" 1 9 "experimental" 35 "incongruent" "SITTING" "GREEN" "red" 568 1 1 1
"11_1_1" 1 9 "experimental" 36 "neutral" "SITTING" "XXX" "green" 497 2 2 1
"11_1_1" 1 10 "experimental" 1 "congruent" "SITTING" "RED" "red" 334 1 1 1
"11_1_1" 1 10 "experimental" 2 "congruent" "SITTING" "RED" "red" 497 1 1 1
"11_1_1" 1 10 "experimental" 3 "neutral" "SITTING" "XXXXX" "green" 477 2 2 1
"11_1_1" 1 10 "experimental" 4 "neutral" "SITTING" "XXXXX" "red" 386 1 1 1
"11_1_1" 1 10 "experimental" 5 "incongruent" "SITTING" "RED" "green" 334 2 2 1
"11_1_1" 1 10 "experimental" 6 "neutral" "SITTING" "XXX" "green" 575 2 2 1
"11_1_1" 1 10 "experimental" 7 "congruent" "SITTING" "GREEN" "green" 424 2 2 1
"11_1_1" 1 10 "experimental" 8 "congruent" "SITTING" "GREEN" "green" 439 2 2 1
"11_1_1" 1 10 "experimental" 9 "neutral" "SITTING" "XXX" "red" 526 1 1 1
"11_1_1" 1 10 "experimental" 10 "incongruent" "SITTING" "GREEN" "red" 528 1 1 1
"11_1_1" 1 10 "experimental" 11 "incongruent" "SITTING" "RED" "green" 491 2 2 1
"11_1_1" 1 10 "experimental" 12 "incongruent" "SITTING" "GREEN" "red" 472 1 1 1
"11_1_1" 1 10 "experimental" 13 "neutral" "SITTING" "XXXXX" "red" 445 1 1 1
"11_1_1" 1 10 "experimental" 14 "neutral" "SITTING" "XXX" "green" 683 2 2 1
"11_1_1" 1 10 "experimental" 15 "congruent" "SITTING" "RED" "red" 376 1 1 1
"11_1_1" 1 10 "experimental" 16 "incongruent" "SITTING" "RED" "green" 457 2 2 1
"11_1_1" 1 10 "experimental" 17 "congruent" "SITTING" "GREEN" "green" 447 2 2 1
"11_1_1" 1 10 "experimental" 18 "congruent" "SITTING" "RED" "red" 437 1 1 1
"11_1_1" 1 10 "experimental" 19 "neutral" "SITTING" "XXX" "red" 501 1 1 1
"11_1_1" 1 10 "experimental" 20 "incongruent" "SITTING" "GREEN" "red" 377 1 1 1
"11_1_1" 1 10 "experimental" 21 "neutral" "SITTING" "XXXXX" "green" 386 2 2 1
"11_1_1" 1 10 "experimental" 22 "incongruent" "SITTING" "RED" "green" 492 2 2 1
"11_1_1" 1 10 "experimental" 23 "incongruent" "SITTING" "GREEN" "red" 344 1 1 1
"11_1_1" 1 10 "experimental" 24 "congruent" "SITTING" "GREEN" "green" 435 2 2 1
"11_1_1" 1 10 "experimental" 25 "incongruent" "SITTING" "RED" "green" 442 2 2 1
"11_1_1" 1 10 "experimental" 26 "congruent" "SITTING" "RED" "red" 304 1 1 1
"11_1_1" 1 10 "experimental" 27 "incongruent" "SITTING" "GREEN" "red" 461 1 1 1
"11_1_1" 1 10 "experimental" 28 "neutral" "SITTING" "XXX" "green" 395 2 2 1
"11_1_1" 1 10 "experimental" 29 "neutral" "SITTING" "XXX" "red" 250 1 1 1
"11_1_1" 1 10 "experimental" 30 "congruent" "SITTING" "GREEN" "green" 370 2 2 1
"11_1_1" 1 10 "experimental" 31 "neutral" "SITTING" "XXXXX" "green" 364 1 2 0
"11_1_1" 1 10 "experimental" 32 "congruent" "SITTING" "RED" "red" 742 1 1 1
"11_1_1" 1 10 "experimental" 33 "neutral" "SITTING" "XXXXX" "red" 455 1 1 1
"11_1_1" 1 10 "experimental" 34 "congruent" "SITTING" "GREEN" "green" 341 2 2 1
"11_1_1" 1 10 "experimental" 35 "incongruent" "SITTING" "RED" "green" 584 2 2 1
"11_1_1" 1 10 "experimental" 36 "incongruent" "SITTING" "GREEN" "red" 465 1 1 1
"12_2_2" 2 2 "experimental" 1 "incongruent" "SITTING" "GREEN" "red" 0 1 0 0
"12_2_2" 2 2 "experimental" 2 "congruent" "SITTING" "RED" "red" 511 1 1 1
"12_2_2" 2 2 "experimental" 3 "congruent" "SITTING" "GREEN" "green" 266 2 2 1
"12_2_2" 2 2 "experimental" 4 "neutral" "SITTING" "XXX" "green" 272 1 2 0
"12_2_2" 2 2 "experimental" 5 "incongruent" "SITTING" "RED" "green" 565 2 2 1
"12_2_2" 2 2 "experimental" 6 "congruent" "SITTING" "RED" "red" 351 1 1 1
"12_2_2" 2 2 "experimental" 7 "congruent" "SITTING" "GREEN" "green" 418 2 2 1
"12_2_2" 2 2 "experimental" 8 "neutral" "SITTING" "XXX" "red" 562 1 1 1
"12_2_2" 2 2 "experimental" 9 "incongruent" "SITTING" "GREEN" "red" 531 1 1 1
"12_2_2" 2 2 "experimental" 10 "neutral" "SITTING" "XXXXX" "green" 350 2 2 1
"12_2_2" 2 2 "experimental" 11 "incongruent" "SITTING" "RED" "green" 289 1 2 0
"12_2_2" 2 2 "experimental" 12 "neutral" "SITTING" "XXXXX" "red" 990 1 1 1
"12_2_2" 2 2 "experimental" 13 "neutral" "SITTING" "XXX" "red" 686 1 1 1
"12_2_2" 2 2 "experimental" 14 "incongruent" "SITTING" "GREEN" "red" 434 1 1 1
"12_2_2" 2 2 "experimental" 15 "congruent" "SITTING" "RED" "red" 354 1 1 1
"12_2_2" 2 2 "experimental" 16 "neutral" "SITTING" "XXXXX" "green" 404 2 2 1
"12_2_2" 2 2 "experimental" 17 "neutral" "SITTING" "XXX" "green" 477 2 2 1
"12_2_2" 2 2 "experimental" 18 "incongruent" "SITTING" "RED" "green" 506 2 2 1
"12_2_2" 2 2 "experimental" 19 "congruent" "SITTING" "RED" "red" 382 1 1 1
"12_2_2" 2 2 "experimental" 20 "incongruent" "SITTING" "GREEN" "red" 528 1 1 1
"12_2_2" 2 2 "experimental" 21 "congruent" "SITTING" "GREEN" "green" 539 2 2 1
"12_2_2" 2 2 "experimental" 22 "congruent" "SITTING" "GREEN" "green" 318 1 2 0
"12_2_2" 2 2 "experimental" 23 "neutral" "SITTING" "XXXXX" "red" 518 1 1 1
"12_2_2" 2 2 "experimental" 24 "incongruent" "SITTING" "RED" "green" 693 2 2 1
"12_2_2" 2 2 "experimental" 25 "incongruent" "SITTING" "GREEN" "red" 465 1 1 1
"12_2_2" 2 2 "experimental" 26 "neutral" "SITTING" "XXX" "red" 870 1 1 1
"12_2_2" 2 2 "experimental" 27 "incongruent" "SITTING" "RED" "green" 371 2 2 1
"12_2_2" 2 2 "experimental" 28 "congruent" "SITTING" "RED" "red" 437 1 1 1
"12_2_2" 2 2 "experimental" 29 "congruent" "SITTING" "GREEN" "green" 475 2 2 1
"12_2_2" 2 2 "experimental" 30 "incongruent" "SITTING" "GREEN" "red" 536 1 1 1
"12_2_2" 2 2 "experimental" 31 "neutral" "SITTING" "XXXXX" "green" 907 2 2 1
"12_2_2" 2 2 "experimental" 32 "neutral" "SITTING" "XXX" "green" 718 2 2 1
"12_2_2" 2 2 "experimental" 33 "congruent" "SITTING" "GREEN" "green" 522 2 2 1
"12_2_2" 2 2 "experimental" 34 "neutral" "SITTING" "XXXXX" "red" 429 1 1 1
"12_2_2" 2 2 "experimental" 35 "incongruent" "SITTING" "RED" "green" 420 2 2 1
"12_2_2" 2 2 "experimental" 36 "congruent" "SITTING" "RED" "red" 540 1 1 1
"12_2_2" 2 3 "experimental" 1 "neutral" "SITTING" "XXXXX" "green" 479 2 2 1
"12_2_2" 2 3 "experimental" 2 "incongruent" "SITTING" "GREEN" "red" 580 2 1 0
"12_2_2" 2 3 "experimental" 3 "congruent" "SITTING" "GREEN" "green" 612 2 2 1
"12_2_2" 2 3 "experimental" 4 "incongruent" "SITTING" "RED" "green" 851 2 2 1
"12_2_2" 2 3 "experimental" 5 "congruent" "SITTING" "RED" "red" 505 1 1 1
"12_2_2" 2 3 "experimental" 6 "neutral" "SITTING" "XXXXX" "red" 597 1 1 1
"12_2_2" 2 3 "experimental" 7 "congruent" "SITTING" "GREEN" "green" 382 2 2 1
"12_2_2" 2 3 "experimental" 8 "incongruent" "SITTING" "GREEN" "red" 399 1 1 1
"12_2_2" 2 3 "experimental" 9 "incongruent" "SITTING" "RED" "green" 503 2 2 1
"12_2_2" 2 3 "experimental" 10 "congruent" "SITTING" "RED" "red" 411 1 1 1
"12_2_2" 2 3 "experimental" 11 "neutral" "SITTING" "XXX" "green" 355 2 2 1
"12_2_2" 2 3 "experimental" 12 "neutral" "SITTING" "XXX" "red" 556 1 1 1
"12_2_2" 2 3 "experimental" 13 "neutral" "SITTING" "XXXXX" "green" 407 2 2 1
"12_2_2" 2 3 "experimental" 14 "neutral" "SITTING" "XXXXX" "red" 390 1 1 1
"12_2_2" 2 3 "experimental" 15 "congruent" "SITTING" "GREEN" "green" 456 2 2 1
"12_2_2" 2 3 "experimental" 16 "incongruent" "SITTING" "GREEN" "red" 598 1 1 1
"12_2_2" 2 3 "experimental" 17 "neutral" "SITTING" "XXX" "green" 542 2 2 1
"12_2_2" 2 3 "experimental" 18 "incongruent" "SITTING" "RED" "green" 985 2 2 1
"12_2_2" 2 3 "experimental" 19 "congruent" "SITTING" "RED" "red" 553 1 1 1
"12_2_2" 2 3 "experimental" 20 "congruent" "SITTING" "RED" "red" 499 1 1 1
"12_2_2" 2 3 "experimental" 21 "incongruent" "SITTING" "GREEN" "red" 744 1 1 1
"12_2_2" 2 3 "experimental" 22 "congruent" "SITTING" "GREEN" "green" 417 2 2 1
"12_2_2" 2 3 "experimental" 23 "neutral" "SITTING" "XXX" "red" 441 1 1 1
"12_2_2" 2 3 "experimental" 24 "incongruent" "SITTING" "RED" "green" 464 2 2 1
"12_2_2" 2 3 "experimental" 25 "incongruent" "SITTING" "GREEN" "red" 414 1 1 1
"12_2_2" 2 3 "experimental" 26 "congruent" "SITTING" "RED" "red" 437 1 1 1
"12_2_2" 2 3 "experimental" 27 "incongruent" "SITTING" "RED" "green" 613 2 2 1
"12_2_2" 2 3 "experimental" 28 "incongruent" "SITTING" "GREEN" "red" 276 1 1 1
"12_2_2" 2 3 "experimental" 29 "neutral" "SITTING" "XXXXX" "red" 498 1 1 1
"12_2_2" 2 3 "experimental" 30 "neutral" "SITTING" "XXXXX" "green" 574 2 2 1
"12_2_2" 2 3 "experimental" 31 "congruent" "SITTING" "RED" "red" 560 1 1 1
"12_2_2" 2 3 "experimental" 32 "congruent" "SITTING" "GREEN" "green" 385 2 2 1
"12_2_2" 2 3 "experimental" 33 "neutral" "SITTING" "XXX" "green" 451 2 2 1
"12_2_2" 2 3 "experimental" 34 "congruent" "SITTING" "GREEN" "green" 473 2 2 1
"12_2_2" 2 3 "experimental" 35 "incongruent" "SITTING" "RED" "green" 591 2 2 1
"12_2_2" 2 3 "experimental" 36 "neutral" "SITTING" "XXX" "red" 696 1 1 1
"12_2_2" 2 4 "experimental" 1 "congruent" "SITTING" "RED" "red" 548 1 1 1
"12_2_2" 2 4 "experimental" 2 "incongruent" "SITTING" "GREEN" "red" 470 1 1 1
"12_2_2" 2 4 "experimental" 3 "neutral" "SITTING" "XXXXX" "green" 492 2 2 1
"12_2_2" 2 4 "experimental" 4 "incongruent" "SITTING" "RED" "green" 792 2 2 1
"12_2_2" 2 4 "experimental" 5 "neutral" "SITTING" "XXX" "green" 311 1 2 0
"12_2_2" 2 4 "experimental" 6 "incongruent" "SITTING" "GREEN" "red" 930 1 1 1
"12_2_2" 2 4 "experimental" 7 "congruent" "SITTING" "RED" "red" 709 1 1 1
"12_2_2" 2 4 "experimental" 8 "neutral" "SITTING" "XXXXX" "red" 592 1 1 1
"12_2_2" 2 4 "experimental" 9 "neutral" "SITTING" "XXX" "red" 913 1 1 1
"12_2_2" 2 4 "experimental" 10 "incongruent" "SITTING" "RED" "green" 923 2 2 1
"12_2_2" 2 4 "experimental" 11 "congruent" "SITTING" "GREEN" "green" 709 2 2 1
"12_2_2" 2 4 "experimental" 12 "congruent" "SITTING" "GREEN" "green" 424 2 2 1
"12_2_2" 2 4 "experimental" 13 "neutral" "SITTING" "XXXXX" "green" 465 2 2 1
"12_2_2" 2 4 "experimental" 14 "incongruent" "SITTING" "GREEN" "red" 462 1 1 1
"12_2_2" 2 4 "experimental" 15 "congruent" "SITTING" "RED" "red" 700 1 1 1
"12_2_2" 2 4 "experimental" 16 "congruent" "SITTING" "RED" "red" 440 1 1 1
"12_2_2" 2 4 "experimental" 17 "neutral" "SITTING" "XXX" "green" 735 2 2 1
"12_2_2" 2 4 "experimental" 18 "neutral" "SITTING" "XXXXX" "red" 633 1 1 1
"12_2_2" 2 4 "experimental" 19 "incongruent" "SITTING" "RED" "green" 784 2 2 1
"12_2_2" 2 4 "experimental" 20 "incongruent" "SITTING" "GREEN" "red" 769 1 1 1
"12_2_2" 2 4 "experimental" 21 "congruent" "SITTING" "GREEN" "green" 641 2 2 1
"12_2_2" 2 4 "experimental" 22 "incongruent" "SITTING" "RED" "green" 1336 2 2 1
"12_2_2" 2 4 "experimental" 23 "congruent" "SITTING" "GREEN" "green" 490 2 2 1
"12_2_2" 2 4 "experimental" 24 "neutral" "SITTING" "XXX" "red" 543 1 1 1
"12_2_2" 2 4 "experimental" 25 "incongruent" "SITTING" "GREEN" "red" 704 1 1 1
"12_2_2" 2 4 "experimental" 26 "congruent" "SITTING" "RED" "red" 508 1 1 1
"12_2_2" 2 4 "experimental" 27 "neutral" "SITTING" "XXXXX" "green" 408 2 2 1
"12_2_2" 2 4 "experimental" 28 "neutral" "SITTING" "XXX" "red" 327 1 1 1
"12_2_2" 2 4 "experimental" 29 "neutral" "SITTING" "XXX" "green" 291 2 2 1
"12_2_2" 2 4 "experimental" 30 "neutral" "SITTING" "XXXXX" "red" 343 1 1 1
"12_2_2" 2 4 "experimental" 31 "congruent" "SITTING" "GREEN" "green" 282 2 2 1
"12_2_2" 2 4 "experimental" 32 "incongruent" "SITTING" "RED" "green" 313 2 2 1
"12_2_2" 2 4 "experimental" 33 "congruent" "SITTING" "RED" "red" 292 1 1 1
"12_2_2" 2 4 "experimental" 34 "incongruent" "SITTING" "GREEN" "red" 521 1 1 1
"12_2_2" 2 4 "experimental" 35 "incongruent" "SITTING" "RED" "green" 284 2 2 1
"12_2_2" 2 4 "experimental" 36 "congruent" "SITTING" "GREEN" "green" 499 2 2 1
"12_2_2" 2 5 "experimental" 1 "neutral" "SITTING" "XXX" "red" 431 1 1 1
"12_2_2" 2 5 "experimental" 2 "congruent" "SITTING" "RED" "red" 461 1 1 1
"12_2_2" 2 5 "experimental" 3 "incongruent" "SITTING" "GREEN" "red" 643 1 1 1
"12_2_2" 2 5 "experimental" 4 "neutral" "SITTING" "XXXXX" "red" 441 1 1 1
"12_2_2" 2 5 "experimental" 5 "neutral" "SITTING" "XXXXX" "green" 504 2 2 1
"12_2_2" 2 5 "experimental" 6 "incongruent" "SITTING" "RED" "green" 451 1 2 0
"12_2_2" 2 5 "experimental" 7 "congruent" "SITTING" "RED" "red" 506 1 1 1
"12_2_2" 2 5 "experimental" 8 "incongruent" "SITTING" "GREEN" "red" 469 1 1 1
"12_2_2" 2 5 "experimental" 9 "congruent" "SITTING" "GREEN" "green" 635 2 2 1
"12_2_2" 2 5 "experimental" 10 "neutral" "SITTING" "XXX" "green" 490 2 2 1
"12_2_2" 2 5 "experimental" 11 "congruent" "SITTING" "GREEN" "green" 415 2 2 1
"12_2_2" 2 5 "experimental" 12 "incongruent" "SITTING" "RED" "green" 383 2 2 1
"12_2_2" 2 5 "experimental" 13 "congruent" "SITTING" "RED" "red" 352 1 1 1
"12_2_2" 2 5 "experimental" 14 "incongruent" "SITTING" "GREEN" "red" 235 2 1 0
"12_2_2" 2 5 "experimental" 15 "neutral" "SITTING" "XXX" "red" 761 1 1 1
"12_2_2" 2 5 "experimental" 16 "neutral" "SITTING" "XXXXX" "red" 522 1 1 1
"12_2_2" 2 5 "experimental" 17 "incongruent" "SITTING" "RED" "green" 382 2 2 1
"12_2_2" 2 5 "experimental" 18 "incongruent" "SITTING" "GREEN" "red" 551 1 1 1
"12_2_2" 2 5 "experimental" 19 "congruent" "SITTING" "GREEN" "green" 410 2 2 1
"12_2_2" 2 5 "experimental" 20 "congruent" "SITTING" "GREEN" "green" 329 2 2 1
"12_2_2" 2 5 "experimental" 21 "congruent" "SITTING" "RED" "red" 509 1 1 1
"12_2_2" 2 5 "experimental" 22 "neutral" "SITTING" "XXX" "green" 824 2 2 1
"12_2_2" 2 5 "experimental" 23 "neutral" "SITTING" "XXXXX" "green" 671 2 2 1
"12_2_2" 2 5 "experimental" 24 "incongruent" "SITTING" "RED" "green" 748 2 2 1
"12_2_2" 2 5 "experimental" 25 "incongruent" "SITTING" "GREEN" "red" 422 1 1 1
"12_2_2" 2 5 "experimental" 26 "congruent" "SITTING" "GREEN" "green" 422 2 2 1
"12_2_2" 2 5 "experimental" 27 "neutral" "SITTING" "XXX" "red" 486 1 1 1
"12_2_2" 2 5 "experimental" 28 "incongruent" "SITTING" "RED" "green" 499 2 2 1
"12_2_2" 2 5 "experimental" 29 "neutral" "SITTING" "XXXXX" "green" 487 1 2 0
"12_2_2" 2 5 "experimental" 30 "neutral" "SITTING" "XXX" "green" 324 2 2 1
"12_2_2" 2 5 "experimental" 31 "congruent" "SITTING" "RED" "red" 383 1 1 1
"12_2_2" 2 5 "experimental" 32 "congruent" "SITTING" "GREEN" "green" 320 2 2 1
"12_2_2" 2 5 "experimental" 33 "congruent" "SITTING" "RED" "red" 429 1 1 1
"12_2_2" 2 5 "experimental" 34 "neutral" "SITTING" "XXXXX" "red" 844 1 1 1
"12_2_2" 2 5 "experimental" 35 "incongruent" "SITTING" "GREEN" "red" 609 1 1 1
"12_2_2" 2 5 "experimental" 36 "incongruent" "SITTING" "RED" "green" 353 2 2 1
"12_2_2" 2 7 "experimental" 1 "incongruent" "STANDING" "GREEN" "red" 752 2 1 0
"12_2_2" 2 7 "experimental" 2 "congruent" "STANDING" "RED" "red" 521 1 1 1
"12_2_2" 2 7 "experimental" 3 "neutral" "STANDING" "XXX" "green" 381 2 2 1
"12_2_2" 2 7 "experimental" 4 "incongruent" "STANDING" "RED" "green" 678 1 2 0
"12_2_2" 2 7 "experimental" 5 "congruent" "STANDING" "GREEN" "green" 323 2 2 1
"12_2_2" 2 7 "experimental" 6 "neutral" "STANDING" "XXXXX" "green" 358 2 2 1
"12_2_2" 2 7 "experimental" 7 "neutral" "STANDING" "XXXXX" "red" 312 1 1 1
"12_2_2" 2 7 "experimental" 8 "congruent" "STANDING" "RED" "red" 436 1 1 1
"12_2_2" 2 7 "experimental" 9 "incongruent" "STANDING" "GREEN" "red" 380 1 1 1
"12_2_2" 2 7 "experimental" 10 "congruent" "STANDING" "GREEN" "green" 309 2 2 1
"12_2_2" 2 7 "experimental" 11 "neutral" "STANDING" "XXX" "red" 513 1 1 1
"12_2_2" 2 7 "experimental" 12 "incongruent" "STANDING" "RED" "green" 236 2 2 1
"12_2_2" 2 7 "experimental" 13 "incongruent" "STANDING" "GREEN" "red" 395 1 1 1
"12_2_2" 2 7 "experimental" 14 "congruent" "STANDING" "RED" "red" 396 1 1 1
"12_2_2" 2 7 "experimental" 15 "neutral" "STANDING" "XXXXX" "red" 485 1 1 1
"12_2_2" 2 7 "experimental" 16 "incongruent" "STANDING" "RED" "green" 258 2 2 1
"12_2_2" 2 7 "experimental" 17 "neutral" "STANDING" "XXX" "green" 376 1 2 0
"12_2_2" 2 7 "experimental" 18 "incongruent" "STANDING" "GREEN" "red" 601 1 1 1
"12_2_2" 2 7 "experimental" 19 "congruent" "STANDING" "GREEN" "green" 553 2 2 1
"12_2_2" 2 7 "experimental" 20 "congruent" "STANDING" "GREEN" "green" 435 2 2 1
"12_2_2" 2 7 "experimental" 21 "neutral" "STANDING" "XXXXX" "green" 410 2 2 1
"12_2_2" 2 7 "experimental" 22 "incongruent" "STANDING" "RED" "green" 418 2 2 1
"12_2_2" 2 7 "experimental" 23 "congruent" "STANDING" "RED" "red" 354 1 1 1
"12_2_2" 2 7 "experimental" 24 "neutral" "STANDING" "XXX" "red" 445 1 1 1
"12_2_2" 2 7 "experimental" 25 "congruent" "STANDING" "GREEN" "green" 518 2 2 1
"12_2_2" 2 7 "experimental" 26 "incongruent" "STANDING" "GREEN" "red" 631 1 1 1
"12_2_2" 2 7 "experimental" 27 "congruent" "STANDING" "RED" "red" 613 1 1 1
"12_2_2" 2 7 "experimental" 28 "neutral" "STANDING" "XXXXX" "red" 365 1 1 1
"12_2_2" 2 7 "experimental" 29 "neutral" "STANDING" "XXXXX" "green" 375 2 2 1
"12_2_2" 2 7 "experimental" 30 "congruent" "STANDING" "GREEN" "green" 432 2 2 1
"12_2_2" 2 7 "experimental" 31 "congruent" "STANDING" "RED" "red" 255 1 1 1
"12_2_2" 2 7 "experimental" 32 "incongruent" "STANDING" "RED" "green" 446 2 2 1
"12_2_2" 2 7 "experimental" 33 "neutral" "STANDING" "XXX" "green" 355 2 2 1
"12_2_2" 2 7 "experimental" 34 "incongruent" "STANDING" "GREEN" "red" 349 1 1 1
"12_2_2" 2 7 "experimental" 35 "incongruent" "STANDING" "RED" "green" 584 2 2 1
"12_2_2" 2 7 "experimental" 36 "neutral" "STANDING" "XXX" "red" 425 1 1 1
"12_2_2" 2 8 "experimental" 1 "incongruent" "STANDING" "GREEN" "red" 480 1 1 1
"12_2_2" 2 8 "experimental" 2 "neutral" "STANDING" "XXXXX" "green" 389 2 2 1
"12_2_2" 2 8 "experimental" 3 "congruent" "STANDING" "GREEN" "green" 270 1 2 0
"12_2_2" 2 8 "experimental" 4 "incongruent" "STANDING" "RED" "green" 403 2 2 1
"12_2_2" 2 8 "experimental" 5 "neutral" "STANDING" "XXXXX" "red" 476 1 1 1
"12_2_2" 2 8 "experimental" 6 "congruent" "STANDING" "RED" "red" 425 1 1 1
"12_2_2" 2 8 "experimental" 7 "congruent" "STANDING" "GREEN" "green" 376 2 2 1
"12_2_2" 2 8 "experimental" 8 "incongruent" "STANDING" "GREEN" "red" 529 1 1 1
"12_2_2" 2 8 "experimental" 9 "incongruent" "STANDING" "RED" "green" 412 2 2 1
"12_2_2" 2 8 "experimental" 10 "neutral" "STANDING" "XXX" "red" 372 1 1 1
"12_2_2" 2 8 "experimental" 11 "neutral" "STANDING" "XXX" "green" 365 2 2 1
"12_2_2" 2 8 "experimental" 12 "congruent" "STANDING" "RED" "red" 255 1 1 1
"12_2_2" 2 8 "experimental" 13 "incongruent" "STANDING" "GREEN" "red" 401 1 1 1
"12_2_2" 2 8 "experimental" 14 "congruent" "STANDING" "GREEN" "green" 374 2 2 1
"12_2_2" 2 8 "experimental" 15 "neutral" "STANDING" "XXXXX" "red" 359 1 1 1
"12_2_2" 2 8 "experimental" 16 "congruent" "STANDING" "RED" "red" 337 1 1 1
"12_2_2" 2 8 "experimental" 17 "neutral" "STANDING" "XXX" "green" 268 2 2 1
"12_2_2" 2 8 "experimental" 18 "incongruent" "STANDING" "RED" "green" 266 1 2 0
"12_2_2" 2 8 "experimental" 19 "incongruent" "STANDING" "GREEN" "red" 832 1 1 1
"12_2_2" 2 8 "experimental" 20 "incongruent" "STANDING" "RED" "green" 390 2 2 1
"12_2_2" 2 8 "experimental" 21 "congruent" "STANDING" "RED" "red" 335 1 1 1
"12_2_2" 2 8 "experimental" 22 "congruent" "STANDING" "GREEN" "green" 674 2 2 1
"12_2_2" 2 8 "experimental" 23 "neutral" "STANDING" "XXXXX" "green" 375 2 2 1
"12_2_2" 2 8 "experimental" 24 "neutral" "STANDING" "XXX" "red" 424 1 1 1
"12_2_2" 2 8 "experimental" 25 "neutral" "STANDING" "XXXXX" "red" 575 1 1 1
"12_2_2" 2 8 "experimental" 26 "incongruent" "STANDING" "GREEN" "red" 944 2 1 0
"12_2_2" 2 8 "experimental" 27 "congruent" "STANDING" "RED" "red" 690 1 1 1
"12_2_2" 2 8 "experimental" 28 "neutral" "STANDING" "XXX" "red" 446 1 1 1
"12_2_2" 2 8 "experimental" 29 "incongruent" "STANDING" "RED" "green" 429 2 2 1
"12_2_2" 2 8 "experimental" 30 "congruent" "STANDING" "RED" "red" 300 1 1 1
"12_2_2" 2 8 "experimental" 31 "incongruent" "STANDING" "GREEN" "red" 289 1 1 1
"12_2_2" 2 8 "experimental" 32 "neutral" "STANDING" "XXX" "green" 558 2 2 1
"12_2_2" 2 8 "experimental" 33 "incongruent" "STANDING" "RED" "green" 423 2 2 1
"12_2_2" 2 8 "experimental" 34 "congruent" "STANDING" "GREEN" "green" 382 2 2 1
"12_2_2" 2 8 "experimental" 35 "congruent" "STANDING" "GREEN" "green" 392 2 2 1
"12_2_2" 2 8 "experimental" 36 "neutral" "STANDING" "XXXXX" "green" 448 2 2 1
"12_2_2" 2 9 "experimental" 1 "incongruent" "STANDING" "GREEN" "red" 468 1 1 1
"12_2_2" 2 9 "experimental" 2 "congruent" "STANDING" "RED" "red" 485 1 1 1
"12_2_2" 2 9 "experimental" 3 "neutral" "STANDING" "XXX" "green" 466 2 2 1
"12_2_2" 2 9 "experimental" 4 "incongruent" "STANDING" "RED" "green" 375 1 2 0
"12_2_2" 2 9 "experimental" 5 "incongruent" "STANDING" "GREEN" "red" 969 1 1 1
"12_2_2" 2 9 "experimental" 6 "congruent" "STANDING" "GREEN" "green" 506 2 2 1
"12_2_2" 2 9 "experimental" 7 "congruent" "STANDING" "GREEN" "green" 485 2 2 1
"12_2_2" 2 9 "experimental" 8 "congruent" "STANDING" "RED" "red" 298 1 1 1
"12_2_2" 2 9 "experimental" 9 "neutral" "STANDING" "XXXXX" "red" 367 1 1 1
"12_2_2" 2 9 "experimental" 10 "neutral" "STANDING" "XXX" "red" 265 1 1 1
"12_2_2" 2 9 "experimental" 11 "neutral" "STANDING" "XXXXX" "green" 375 2 2 1
"12_2_2" 2 9 "experimental" 12 "incongruent" "STANDING" "RED" "green" 360 2 2 1
"12_2_2" 2 9 "experimental" 13 "congruent" "STANDING" "GREEN" "green" 402 2 2 1
"12_2_2" 2 9 "experimental" 14 "incongruent" "STANDING" "GREEN" "red" 466 1 1 1
"12_2_2" 2 9 "experimental" 15 "neutral" "STANDING" "XXX" "green" 224 1 2 0
"12_2_2" 2 9 "experimental" 16 "incongruent" "STANDING" "RED" "green" 824 2 2 1
"12_2_2" 2 9 "experimental" 17 "neutral" "STANDING" "XXXXX" "red" 350 1 1 1
"12_2_2" 2 9 "experimental" 18 "congruent" "STANDING" "RED" "red" 617 1 1 1
"12_2_2" 2 9 "experimental" 19 "incongruent" "STANDING" "GREEN" "red" 440 1 1 1
"12_2_2" 2 9 "experimental" 20 "neutral" "STANDING" "XXXXX" "green" 303 2 2 1
"12_2_2" 2 9 "experimental" 21 "incongruent" "STANDING" "RED" "green" 244 1 2 0
"12_2_2" 2 9 "experimental" 22 "congruent" "STANDING" "GREEN" "green" 562 2 2 1
"12_2_2" 2 9 "experimental" 23 "congruent" "STANDING" "RED" "red" 347 1 1 1
"12_2_2" 2 9 "experimental" 24 "neutral" "STANDING" "XXX" "red" 238 1 1 1
"12_2_2" 2 9 "experimental" 25 "neutral" "STANDING" "XXXXX" "red" 335 1 1 1
"12_2_2" 2 9 "experimental" 26 "congruent" "STANDING" "GREEN" "green" 425 2 2 1
"12_2_2" 2 9 "experimental" 27 "incongruent" "STANDING" "GREEN" "red" 528 1 1 1
"12_2_2" 2 9 "experimental" 28 "incongruent" "STANDING" "RED" "green" 331 2 2 1
"12_2_2" 2 9 "experimental" 29 "incongruent" "STANDING" "GREEN" "red" 279 1 1 1
"12_2_2" 2 9 "experimental" 30 "incongruent" "STANDING" "RED" "green" 452 2 2 1
"12_2_2" 2 9 "experimental" 31 "neutral" "STANDING" "XXX" "red" 363 1 1 1
"12_2_2" 2 9 "experimental" 32 "congruent" "STANDING" "RED" "red" 420 1 1 1
"12_2_2" 2 9 "experimental" 33 "congruent" "STANDING" "GREEN" "green" 492 2 2 1
"12_2_2" 2 9 "experimental" 34 "neutral" "STANDING" "XXXXX" "green" 473 2 2 1
"12_2_2" 2 9 "experimental" 35 "congruent" "STANDING" "RED" "red" 423 1 1 1
"12_2_2" 2 9 "experimental" 36 "neutral" "STANDING" "XXX" "green" 350 2 2 1
"12_2_2" 2 10 "experimental" 1 "neutral" "STANDING" "XXX" "red" 513 1 1 1
"12_2_2" 2 10 "experimental" 2 "congruent" "STANDING" "GREEN" "green" 453 2 2 1
"12_2_2" 2 10 "experimental" 3 "congruent" "STANDING" "RED" "red" 419 1 1 1
"12_2_2" 2 10 "experimental" 4 "neutral" "STANDING" "XXX" "green" 363 1 2 0
"12_2_2" 2 10 "experimental" 5 "congruent" "STANDING" "GREEN" "green" 484 2 2 1
"12_2_2" 2 10 "experimental" 6 "neutral" "STANDING" "XXXXX" "green" 489 2 2 1
"12_2_2" 2 10 "experimental" 7 "incongruent" "STANDING" "GREEN" "red" 430 1 1 1
"12_2_2" 2 10 "experimental" 8 "incongruent" "STANDING" "RED" "green" 421 2 2 1
"12_2_2" 2 10 "experimental" 9 "congruent" "STANDING" "RED" "red" 333 1 1 1
"12_2_2" 2 10 "experimental" 10 "neutral" "STANDING" "XXXXX" "red" 280 1 1 1
"12_2_2" 2 10 "experimental" 11 "incongruent" "STANDING" "GREEN" "red" 310 1 1 1
"12_2_2" 2 10 "experimental" 12 "incongruent" "STANDING" "RED" "green" 370 2 2 1
"12_2_2" 2 10 "experimental" 13 "congruent" "STANDING" "GREEN" "green" 551 2 2 1
"12_2_2" 2 10 "experimental" 14 "neutral" "STANDING" "XXX" "red" 606 1 1 1
"12_2_2" 2 10 "experimental" 15 "incongruent" "STANDING" "GREEN" "red" 702 1 1 1
"12_2_2" 2 10 "experimental" 16 "incongruent" "STANDING" "RED" "green" 322 2 2 1
"12_2_2" 2 10 "experimental" 17 "neutral" "STANDING" "XXX" "green" 446 2 2 1
"12_2_2" 2 10 "experimental" 18 "incongruent" "STANDING" "GREEN" "red" 444 1 1 1
"12_2_2" 2 10 "experimental" 19 "neutral" "STANDING" "XXXXX" "red" 563 1 1 1
"12_2_2" 2 10 "experimental" 20 "congruent" "STANDING" "RED" "red" 340 1 1 1
"12_2_2" 2 10 "experimental" 21 "congruent" "STANDING" "GREEN" "green" 406 2 2 1
"12_2_2" 2 10 "experimental" 22 "incongruent" "STANDING" "RED" "green" 447 2 2 1
"12_2_2" 2 10 "experimental" 23 "congruent" "STANDING" "RED" "red" 341 1 1 1
"12_2_2" 2 10 "experimental" 24 "neutral" "STANDING" "XXXXX" "green" 432 2 2 1
"12_2_2" 2 10 "experimental" 25 "congruent" "STANDING" "GREEN" "green" 503 2 2 1
"12_2_2" 2 10 "experimental" 26 "incongruent" "STANDING" "GREEN" "red" 468 1 1 1
"12_2_2" 2 10 "experimental" 27 "neutral" "STANDING" "XXX" "red" 449 1 1 1
"12_2_2" 2 10 "experimental" 28 "incongruent" "STANDING" "RED" "green" 471 1 2 0
"12_2_2" 2 10 "experimental" 29 "neutral" "STANDING" "XXXXX" "red" 533 1 1 1
"12_2_2" 2 10 "experimental" 30 "congruent" "STANDING" "GREEN" "green" 551 2 2 1
"12_2_2" 2 10 "experimental" 31 "neutral" "STANDING" "XXX" "green" 554 2 2 1
"12_2_2" 2 10 "experimental" 32 "neutral" "STANDING" "XXXXX" "green" 476 2 2 1
"12_2_2" 2 10 "experimental" 33 "congruent" "STANDING" "RED" "red" 449 1 1 1
"12_2_2" 2 10 "experimental" 34 "congruent" "STANDING" "RED" "red" 423 1 1 1
"12_2_2" 2 10 "experimental" 35 "incongruent" "STANDING" "GREEN" "red" 591 1 1 1
"12_2_2" 2 10 "experimental" 36 "incongruent" "STANDING" "RED" "green" 711 2 2 1
"13_1_1" 1 2 "experimental" 1 "incongruent" "STANDING" "RED" "green" 784 2 2 1
"13_1_1" 1 2 "experimental" 2 "incongruent" "STANDING" "GREEN" "red" 441 1 1 1
"13_1_1" 1 2 "experimental" 3 "neutral" "STANDING" "XXXXX" "green" 455 2 2 1
"13_1_1" 1 2 "experimental" 4 "congruent" "STANDING" "GREEN" "green" 525 2 2 1
"13_1_1" 1 2 "experimental" 5 "neutral" "STANDING" "XXX" "green" 608 2 2 1
"13_1_1" 1 2 "experimental" 6 "neutral" "STANDING" "XXXXX" "red" 279 1 1 1
"13_1_1" 1 2 "experimental" 7 "neutral" "STANDING" "XXX" "red" 397 1 1 1
"13_1_1" 1 2 "experimental" 8 "congruent" "STANDING" "GREEN" "green" 413 2 2 1
"13_1_1" 1 2 "experimental" 9 "incongruent" "STANDING" "RED" "green" 485 2 2 1
"13_1_1" 1 2 "experimental" 10 "congruent" "STANDING" "RED" "red" 378 1 1 1
"13_1_1" 1 2 "experimental" 11 "congruent" "STANDING" "RED" "red" 460 1 1 1
"13_1_1" 1 2 "experimental" 12 "incongruent" "STANDING" "GREEN" "red" 425 1 1 1
"13_1_1" 1 2 "experimental" 13 "neutral" "STANDING" "XXXXX" "red" 457 1 1 1
"13_1_1" 1 2 "experimental" 14 "neutral" "STANDING" "XXX" "green" 462 2 2 1
"13_1_1" 1 2 "experimental" 15 "incongruent" "STANDING" "RED" "green" 492 2 2 1
"13_1_1" 1 2 "experimental" 16 "congruent" "STANDING" "GREEN" "green" 513 2 2 1
"13_1_1" 1 2 "experimental" 17 "neutral" "STANDING" "XXX" "red" 351 1 1 1
"13_1_1" 1 2 "experimental" 18 "neutral" "STANDING" "XXXXX" "green" 735 2 2 1
"13_1_1" 1 2 "experimental" 19 "congruent" "STANDING" "RED" "red" 378 1 1 1
"13_1_1" 1 2 "experimental" 20 "incongruent" "STANDING" "GREEN" "red" 491 1 1 1
"13_1_1" 1 2 "experimental" 21 "incongruent" "STANDING" "RED" "green" 455 2 2 1
"13_1_1" 1 2 "experimental" 22 "congruent" "STANDING" "GREEN" "green" 485 2 2 1
"13_1_1" 1 2 "experimental" 23 "incongruent" "STANDING" "GREEN" "red" 394 1 1 1
"13_1_1" 1 2 "experimental" 24 "congruent" "STANDING" "RED" "red" 315 1 1 1
"13_1_1" 1 2 "experimental" 25 "congruent" "STANDING" "GREEN" "green" 647 2 2 1
"13_1_1" 1 2 "experimental" 26 "neutral" "STANDING" "XXX" "green" 533 2 2 1
"13_1_1" 1 2 "experimental" 27 "incongruent" "STANDING" "RED" "green" 512 2 2 1
"13_1_1" 1 2 "experimental" 28 "incongruent" "STANDING" "GREEN" "red" 340 1 1 1
"13_1_1" 1 2 "experimental" 29 "neutral" "STANDING" "XXX" "red" 294 1 1 1
"13_1_1" 1 2 "experimental" 30 "congruent" "STANDING" "RED" "red" 291 1 1 1
"13_1_1" 1 2 "experimental" 31 "incongruent" "STANDING" "RED" "green" 360 2 2 1
"13_1_1" 1 2 "experimental" 32 "neutral" "STANDING" "XXXXX" "red" 346 1 1 1
"13_1_1" 1 2 "experimental" 33 "congruent" "STANDING" "RED" "red" 364 1 1 1
"13_1_1" 1 2 "experimental" 34 "incongruent" "STANDING" "GREEN" "red" 302 1 1 1
"13_1_1" 1 2 "experimental" 35 "neutral" "STANDING" "XXXXX" "green" 459 2 2 1
"13_1_1" 1 2 "experimental" 36 "congruent" "STANDING" "GREEN" "green" 529 2 2 1
"13_1_1" 1 3 "experimental" 1 "congruent" "STANDING" "RED" "red" 484 1 1 1
"13_1_1" 1 3 "experimental" 2 "neutral" "STANDING" "XXX" "red" 441 1 1 1
"13_1_1" 1 3 "experimental" 3 "neutral" "STANDING" "XXXXX" "red" 432 1 1 1
"13_1_1" 1 3 "experimental" 4 "incongruent" "STANDING" "RED" "green" 367 2 2 1
"13_1_1" 1 3 "experimental" 5 "neutral" "STANDING" "XXX" "green" 468 2 2 1
"13_1_1" 1 3 "experimental" 6 "congruent" "STANDING" "RED" "red" 470 1 1 1
"13_1_1" 1 3 "experimental" 7 "congruent" "STANDING" "GREEN" "green" 500 2 2 1
"13_1_1" 1 3 "experimental" 8 "incongruent" "STANDING" "GREEN" "red" 409 1 1 1
"13_1_1" 1 3 "experimental" 9 "incongruent" "STANDING" "RED" "green" 665 2 2 1
"13_1_1" 1 3 "experimental" 10 "congruent" "STANDING" "GREEN" "green" 422 2 2 1
"13_1_1" 1 3 "experimental" 11 "incongruent" "STANDING" "GREEN" "red" 365 1 1 1
"13_1_1" 1 3 "experimental" 12 "neutral" "STANDING" "XXXXX" "green" 591 2 2 1
"13_1_1" 1 3 "experimental" 13 "neutral" "STANDING" "XXXXX" "red" 551 1 1 1
"13_1_1" 1 3 "experimental" 14 "incongruent" "STANDING" "RED" "green" 482 2 2 1
"13_1_1" 1 3 "experimental" 15 "neutral" "STANDING" "XXX" "green" 382 2 2 1
"13_1_1" 1 3 "experimental" 16 "incongruent" "STANDING" "GREEN" "red" 343 1 1 1
"13_1_1" 1 3 "experimental" 17 "congruent" "STANDING" "RED" "red" 346 2 1 0
"13_1_1" 1 3 "experimental" 18 "congruent" "STANDING" "GREEN" "green" 565 2 2 1
"13_1_1" 1 3 "experimental" 19 "neutral" "STANDING" "XXX" "red" 550 1 1 1
"13_1_1" 1 3 "experimental" 20 "incongruent" "STANDING" "RED" "green" 640 2 2 1
"13_1_1" 1 3 "experimental" 21 "incongruent" "STANDING" "GREEN" "red" 375 1 1 1
"13_1_1" 1 3 "experimental" 22 "neutral" "STANDING" "XXXXX" "green" 505 2 2 1
"13_1_1" 1 3 "experimental" 23 "congruent" "STANDING" "RED" "red" 477 1 1 1
"13_1_1" 1 3 "experimental" 24 "congruent" "STANDING" "GREEN" "green" 394 2 2 1
"13_1_1" 1 3 "experimental" 25 "incongruent" "STANDING" "RED" "green" 619 2 2 1
"13_1_1" 1 3 "experimental" 26 "incongruent" "STANDING" "GREEN" "red" 346 1 1 1
"13_1_1" 1 3 "experimental" 27 "congruent" "STANDING" "RED" "red" 437 1 1 1
"13_1_1" 1 3 "experimental" 28 "incongruent" "STANDING" "RED" "green" 428 2 2 1
"13_1_1" 1 3 "experimental" 29 "incongruent" "STANDING" "GREEN" "red" 418 1 1 1
"13_1_1" 1 3 "experimental" 30 "neutral" "STANDING" "XXX" "red" 411 1 1 1
"13_1_1" 1 3 "experimental" 31 "congruent" "STANDING" "GREEN" "green" 467 2 2 1
"13_1_1" 1 3 "experimental" 32 "neutral" "STANDING" "XXXXX" "red" 505 1 1 1
"13_1_1" 1 3 "experimental" 33 "neutral" "STANDING" "XXX" "green" 637 2 2 1
"13_1_1" 1 3 "experimental" 34 "congruent" "STANDING" "GREEN" "green" 387 2 2 1
"13_1_1" 1 3 "experimental" 35 "neutral" "STANDING" "XXXXX" "green" 804 2 2 1
"13_1_1" 1 3 "experimental" 36 "congruent" "STANDING" "RED" "red" 340 1 1 1
"13_1_1" 1 4 "experimental" 1 "congruent" "STANDING" "GREEN" "green" 519 2 2 1
"13_1_1" 1 4 "experimental" 2 "incongruent" "STANDING" "RED" "green" 443 2 2 1
"13_1_1" 1 4 "experimental" 3 "congruent" "STANDING" "GREEN" "green" 329 2 2 1
"13_1_1" 1 4 "experimental" 4 "congruent" "STANDING" "RED" "red" 516 1 1 1
"13_1_1" 1 4 "experimental" 5 "neutral" "STANDING" "XXXXX" "red" 440 1 1 1
"13_1_1" 1 4 "experimental" 6 "congruent" "STANDING" "RED" "red" 407 1 1 1
"13_1_1" 1 4 "experimental" 7 "neutral" "STANDING" "XXX" "red" 352 1 1 1
"13_1_1" 1 4 "experimental" 8 "incongruent" "STANDING" "GREEN" "red" 339 1 1 1
"13_1_1" 1 4 "experimental" 9 "incongruent" "STANDING" "RED" "green" 470 2 2 1
"13_1_1" 1 4 "experimental" 10 "neutral" "STANDING" "XXX" "green" 444 2 2 1
"13_1_1" 1 4 "experimental" 11 "neutral" "STANDING" "XXXXX" "green" 522 2 2 1
"13_1_1" 1 4 "experimental" 12 "incongruent" "STANDING" "GREEN" "red" 422 1 1 1
"13_1_1" 1 4 "experimental" 13 "incongruent" "STANDING" "RED" "green" 358 2 2 1
"13_1_1" 1 4 "experimental" 14 "neutral" "STANDING" "XXXXX" "red" 576 1 1 1
"13_1_1" 1 4 "experimental" 15 "incongruent" "STANDING" "GREEN" "red" 497 1 1 1
"13_1_1" 1 4 "experimental" 16 "incongruent" "STANDING" "RED" "green" 451 2 2 1
"13_1_1" 1 4 "experimental" 17 "neutral" "STANDING" "XXX" "green" 396 2 2 1
"13_1_1" 1 4 "experimental" 18 "neutral" "STANDING" "XXX" "red" 300 1 1 1
"13_1_1" 1 4 "experimental" 19 "congruent" "STANDING" "GREEN" "green" 361 2 2 1
"13_1_1" 1 4 "experimental" 20 "congruent" "STANDING" "RED" "red" 371 1 1 1
"13_1_1" 1 4 "experimental" 21 "incongruent" "STANDING" "GREEN" "red" 420 1 1 1
"13_1_1" 1 4 "experimental" 22 "congruent" "STANDING" "GREEN" "green" 340 2 2 1
"13_1_1" 1 4 "experimental" 23 "congruent" "STANDING" "RED" "red" 415 1 1 1
"13_1_1" 1 4 "experimental" 24 "neutral" "STANDING" "XXXXX" "green" 455 2 2 1
"13_1_1" 1 4 "experimental" 25 "neutral" "STANDING" "XXXXX" "red" 541 1 1 1
"13_1_1" 1 4 "experimental" 26 "neutral" "STANDING" "XXX" "red" 368 1 1 1
"13_1_1" 1 4 "experimental" 27 "congruent" "STANDING" "GREEN" "green" 410 2 2 1
"13_1_1" 1 4 "experimental" 28 "congruent" "STANDING" "RED" "red" 554 1 1 1
"13_1_1" 1 4 "experimental" 29 "neutral" "STANDING" "XXX" "green" 692 2 2 1
"13_1_1" 1 4 "experimental" 30 "incongruent" "STANDING" "RED" "green" 568 2 2 1
"13_1_1" 1 4 "experimental" 31 "congruent" "STANDING" "RED" "red" 362 1 1 1
"13_1_1" 1 4 "experimental" 32 "incongruent" "STANDING" "GREEN" "red" 484 1 1 1
"13_1_1" 1 4 "experimental" 33 "congruent" "STANDING" "GREEN" "green" 337 2 2 1
"13_1_1" 1 4 "experimental" 34 "neutral" "STANDING" "XXXXX" "green" 380 2 2 1
"13_1_1" 1 4 "experimental" 35 "incongruent" "STANDING" "RED" "green" 470 2 2 1
"13_1_1" 1 4 "experimental" 36 "incongruent" "STANDING" "GREEN" "red" 459 1 1 1
"13_1_1" 1 5 "experimental" 1 "neutral" "STANDING" "XXX" "green" 385 2 2 1
"13_1_1" 1 5 "experimental" 2 "neutral" "STANDING" "XXX" "red" 546 1 1 1
"13_1_1" 1 5 "experimental" 3 "congruent" "STANDING" "RED" "red" 533 1 1 1
"13_1_1" 1 5 "experimental" 4 "neutral" "STANDING" "XXXXX" "red" 435 1 1 1
"13_1_1" 1 5 "experimental" 5 "incongruent" "STANDING" "RED" "green" 479 2 2 1
"13_1_1" 1 5 "experimental" 6 "incongruent" "STANDING" "GREEN" "red" 468 1 1 1
"13_1_1" 1 5 "experimental" 7 "incongruent" "STANDING" "RED" "green" 394 2 2 1
"13_1_1" 1 5 "experimental" 8 "neutral" "STANDING" "XXXXX" "green" 666 2 2 1
"13_1_1" 1 5 "experimental" 9 "incongruent" "STANDING" "GREEN" "red" 376 1 1 1
"13_1_1" 1 5 "experimental" 10 "congruent" "STANDING" "RED" "red" 441 1 1 1
"13_1_1" 1 5 "experimental" 11 "congruent" "STANDING" "GREEN" "green" 400 2 2 1
"13_1_1" 1 5 "experimental" 12 "congruent" "STANDING" "GREEN" "green" 457 2 2 1
"13_1_1" 1 5 "experimental" 13 "incongruent" "STANDING" "RED" "green" 423 2 2 1
"13_1_1" 1 5 "experimental" 14 "congruent" "STANDING" "RED" "red" 423 1 1 1
"13_1_1" 1 5 "experimental" 15 "incongruent" "STANDING" "GREEN" "red" 367 1 1 1
"13_1_1" 1 5 "experimental" 16 "incongruent" "STANDING" "RED" "green" 417 2 2 1
"13_1_1" 1 5 "experimental" 17 "congruent" "STANDING" "RED" "red" 425 1 1 1
"13_1_1" 1 5 "experimental" 18 "neutral" "STANDING" "XXX" "red" 416 1 1 1
"13_1_1" 1 5 "experimental" 19 "incongruent" "STANDING" "GREEN" "red" 424 1 1 1
"13_1_1" 1 5 "experimental" 20 "congruent" "STANDING" "GREEN" "green" 424 2 2 1
"13_1_1" 1 5 "experimental" 21 "congruent" "STANDING" "GREEN" "green" 496 2 2 1
"13_1_1" 1 5 "experimental" 22 "neutral" "STANDING" "XXXXX" "red" 404 1 1 1
"13_1_1" 1 5 "experimental" 23 "neutral" "STANDING" "XXX" "green" 413 2 2 1
"13_1_1" 1 5 "experimental" 24 "neutral" "STANDING" "XXXXX" "green" 541 2 2 1
"13_1_1" 1 5 "experimental" 25 "neutral" "STANDING" "XXX" "green" 384 2 2 1
"13_1_1" 1 5 "experimental" 26 "neutral" "STANDING" "XXX" "red" 401 1 1 1
"13_1_1" 1 5 "experimental" 27 "congruent" "STANDING" "RED" "red" 449 1 1 1
"13_1_1" 1 5 "experimental" 28 "incongruent" "STANDING" "RED" "green" 501 2 2 1
"13_1_1" 1 5 "experimental" 29 "congruent" "STANDING" "RED" "red" 412 1 1 1
"13_1_1" 1 5 "experimental" 30 "congruent" "STANDING" "GREEN" "green" 740 2 2 1
"13_1_1" 1 5 "experimental" 31 "incongruent" "STANDING" "GREEN" "red" 350 1 1 1
"13_1_1" 1 5 "experimental" 32 "congruent" "STANDING" "GREEN" "green" 384 2 2 1
"13_1_1" 1 5 "experimental" 33 "incongruent" "STANDING" "RED" "green" 481 2 2 1
