"participant","session","condition","trialType","posture","blockNum","trialNum","switchTrialType","congruentTrialType","cueType","shapeType","shapeColor","response","correctResponse","correct","reactionTime","date","utcTime","condblock","correct_bin"
1,1,1,"experiment","standing",1,2,"noswitch","incongruent","solid","square","blue","left","left","yes",594.734907150269,"2021-11-10 10:22:00",1636561744.12815,"standing1",1
1,1,1,"experiment","standing",1,3,"switch","incongruent","dashed","square","blue","right","right","yes",708.487033843994,"2021-11-10 10:22:00",1636561746.19499,"standing1",1
1,1,1,"experiment","standing",1,4,"noswitch","incongruent","dashed","square","blue","right","right","yes",599.519968032837,"2021-11-10 10:22:00",1636561748.13982,"standing1",1
1,1,1,"experiment","standing",1,5,"noswitch","congruent","dashed","square","yellow","right","right","yes",439.940929412842,"2021-11-10 10:22:00",1636561749.911,"standing1",1
1,1,1,"experiment","standing",1,6,"noswitch","congruent","dashed","square","yellow","right","right","yes",384.72580909729,"2021-11-10 10:22:00",1636561751.62303,"standing1",1
1,1,1,"experiment","standing",1,7,"switch","congruent","solid","triangle","blue","left","left","yes",464.102983474731,"2021-11-10 10:22:00",1636561753.45475,"standing1",1
1,1,1,"experiment","standing",1,8,"noswitch","congruent","solid","square","yellow","right","right","yes",291.98694229126,"2021-11-10 10:22:00",1636561755.1092,"standing1",1
1,1,1,"experiment","standing",1,9,"switch","congruent","dashed","square","yellow","right","right","yes",398.140907287598,"2021-11-10 10:22:00",1636561756.87917,"standing1",1
1,1,1,"experiment","standing",1,10,"noswitch","incongruent","dashed","square","blue","right","right","yes",644.129037857056,"2021-11-10 10:22:00",1636561758.888,"standing1",1
1,1,1,"experiment","standing",1,11,"noswitch","incongruent","dashed","square","blue","right","right","yes",406.224012374878,"2021-11-10 10:22:00",1636561760.65866,"standing1",1
1,1,1,"experiment","standing",1,12,"switch","congruent","solid","triangle","blue","left","left","yes",555.38010597229,"2021-11-10 10:22:00",1636561762.54751,"standing1",1
1,1,1,"experiment","standing",1,13,"noswitch","congruent","solid","triangle","blue","left","left","yes",567.210912704468,"2021-11-10 10:22:00",1636561764.43612,"standing1",1
1,1,1,"experiment","standing",1,14,"switch","incongruent","dashed","triangle","yellow","left","left","yes",595.412015914917,"2021-11-10 10:22:00",1636561766.38635,"standing1",1
1,1,1,"experiment","standing",1,15,"noswitch","congruent","dashed","triangle","blue","left","left","yes",1151.58200263977,"2021-11-10 10:22:00",1636561768.86718,"standing1",1
1,1,1,"experiment","standing",1,16,"noswitch","congruent","dashed","square","yellow","right","right","yes",527.726888656616,"2021-11-10 10:22:00",1636561770.75903,"standing1",1
1,1,1,"experiment","standing",1,19,"switch","congruent","dashed","triangle","blue","left","left","yes",1083.97698402405,"2021-11-10 10:22:00",1636561788.66076,"standing1",1
1,1,1,"experiment","standing",1,20,"switch","incongruent","solid","square","blue","right","left","no",690.286874771118,"2021-11-10 10:22:00",1636561790.72821,"standing1",0
1,1,1,"experiment","standing",1,22,"switch","congruent","solid","square","yellow","right","right","yes",515.806913375854,"2021-11-10 10:22:00",1636561805.38816,"standing1",1
1,1,1,"experiment","standing",1,23,"switch","incongruent","dashed","triangle","yellow","left","left","yes",627.094030380249,"2021-11-10 10:22:00",1636561807.33605,"standing1",1
1,1,1,"experiment","standing",1,24,"switch","congruent","solid","square","yellow","right","right","yes",609.241962432861,"2021-11-10 10:22:00",1636561809.28764,"standing1",1
1,1,1,"experiment","standing",1,25,"switch","congruent","dashed","triangle","blue","left","left","yes",830.000162124634,"2021-11-10 10:22:00",1636561811.47644,"standing1",1
1,1,1,"experiment","standing",1,26,"switch","incongruent","solid","triangle","yellow","right","right","yes",510.948896408081,"2021-11-10 10:22:00",1636561813.3692,"standing1",1
1,1,1,"experiment","standing",1,27,"switch","congruent","dashed","triangle","blue","left","left","yes",524.319887161255,"2021-11-10 10:22:00",1636561815.26143,"standing1",1
1,1,1,"experiment","standing",1,28,"noswitch","incongruent","dashed","square","blue","right","right","yes",476.336002349854,"2021-11-10 10:22:00",1636561817.09525,"standing1",1
1,1,1,"experiment","standing",1,29,"switch","incongruent","solid","triangle","yellow","right","right","yes",657.994985580444,"2021-11-10 10:22:00",1636561819.10312,"standing1",1
1,1,1,"experiment","standing",1,30,"noswitch","congruent","solid","triangle","blue","left","left","yes",438.060998916626,"2021-11-10 10:22:00",1636561820.87565,"standing1",1
1,1,1,"experiment","standing",1,31,"switch","incongruent","dashed","triangle","yellow","left","left","yes",377.665042877197,"2021-11-10 10:22:00",1636561822.58799,"standing1",1
1,1,1,"experiment","standing",1,32,"noswitch","congruent","dashed","square","yellow","right","right","yes",680.729866027832,"2021-11-10 10:22:00",1636561824.65626,"standing1",1
1,1,1,"experiment","standing",1,33,"switch","incongruent","solid","triangle","yellow","right","right","yes",505.386829376221,"2021-11-10 10:22:00",1636561826.48579,"standing1",1
1,1,1,"experiment","standing",1,34,"noswitch","incongruent","solid","triangle","yellow","right","right","yes",647.799968719482,"2021-11-10 10:22:00",1636561828.49416,"standing1",1
1,1,1,"experiment","standing",1,35,"switch","congruent","dashed","triangle","blue","left","left","yes",748.785018920898,"2021-11-10 10:22:00",1636561830.56096,"standing1",1
1,1,1,"experiment","standing",1,36,"switch","congruent","solid","square","yellow","right","right","yes",856.34708404541,"2021-11-10 10:22:00",1636561832.74582,"standing1",1
1,1,1,"experiment","standing",1,37,"noswitch","incongruent","solid","square","blue","left","left","yes",1092.21696853638,"2021-11-10 10:22:00",1636561835.16891,"standing1",1
1,1,1,"experiment","standing",1,38,"noswitch","incongruent","solid","triangle","yellow","right","right","yes",790.499925613403,"2021-11-10 10:22:00",1636561837.29539,"standing1",1
1,1,1,"experiment","standing",1,39,"noswitch","congruent","solid","triangle","blue","left","left","yes",421.741008758545,"2021-11-10 10:22:00",1636561839.07152,"standing1",1
1,1,1,"experiment","standing",1,40,"noswitch","congruent","solid","square","yellow","right","right","yes",585.99591255188,"2021-11-10 10:22:00",1636561841.02115,"standing1",1
1,1,1,"experiment","standing",1,41,"switch","congruent","dashed","square","yellow","right","right","yes",768.738985061646,"2021-11-10 10:22:00",1636561843.14502,"standing1",1
1,1,1,"experiment","standing",1,42,"noswitch","incongruent","dashed","square","blue","right","right","yes",528.064012527466,"2021-11-10 10:22:00",1636561845.03587,"standing1",1
1,1,1,"experiment","standing",1,43,"switch","congruent","solid","square","yellow","right","right","yes",722.939014434814,"2021-11-10 10:22:00",1636561847.10411,"standing1",1
1,1,1,"experiment","standing",1,44,"noswitch","incongruent","solid","square","blue","right","left","no",617.738962173462,"2021-11-10 10:22:00",1636561849.05274,"standing1",0
1,1,1,"experiment","standing",1,45,"noswitch","incongruent","solid","square","blue","left","left","yes",1458.86087417603,"2021-11-10 10:22:00",1636561856.82661,"standing1",1
1,1,1,"experiment","standing",1,46,"switch","incongruent","dashed","triangle","yellow","left","left","yes",521.074056625366,"2021-11-10 10:22:00",1636561858.65655,"standing1",1
1,1,1,"experiment","standing",1,47,"noswitch","incongruent","dashed","triangle","yellow","left","left","yes",400.420188903809,"2021-11-10 10:22:00",1636561860.36801,"standing1",1
1,1,1,"experiment","standing",1,48,"noswitch","congruent","dashed","triangle","blue","left","left","yes",441.375017166138,"2021-11-10 10:22:00",1636561862.14104,"standing1",1
1,1,1,"experiment","standing",1,49,"switch","incongruent","solid","square","blue","left","left","yes",406.144142150879,"2021-11-10 10:22:00",1636561863.91328,"standing1",1
1,1,1,"experiment","standing",2,2,"switch","incongruent","solid","triangle","yellow","right","right","yes",1028.41711044312,"2021-11-10 10:22:00",1636561919.7517,"standing2",1
1,1,1,"experiment","standing",2,3,"switch","congruent","dashed","square","yellow","right","right","yes",922.286987304688,"2021-11-10 10:22:00",1636561922.05773,"standing2",1
1,1,1,"experiment","standing",2,4,"noswitch","incongruent","dashed","square","blue","right","right","yes",473.640918731689,"2021-11-10 10:22:00",1636561923.88677,"standing2",1
1,1,1,"experiment","standing",2,5,"noswitch","incongruent","dashed","square","blue","right","right","yes",388.787984848022,"2021-11-10 10:22:00",1636561925.65777,"standing2",1
1,1,1,"experiment","standing",2,6,"noswitch","congruent","dashed","triangle","blue","left","left","yes",581.038951873779,"2021-11-10 10:22:00",1636561927.61128,"standing2",1
1,1,1,"experiment","standing",2,7,"noswitch","congruent","dashed","square","yellow","right","right","yes",454.140186309814,"2021-11-10 10:22:00",1636561929.44476,"standing2",1
1,1,1,"experiment","standing",2,8,"switch","incongruent","solid","triangle","yellow","right","right","yes",464.481830596924,"2021-11-10 10:22:00",1636561931.27525,"standing2",1
1,1,1,"experiment","standing",2,9,"switch","incongruent","dashed","square","blue","right","right","yes",730.710029602051,"2021-11-10 10:22:00",1636561933.34287,"standing2",1
1,1,1,"experiment","standing",2,10,"switch","incongruent","solid","square","blue","left","left","yes",882.411956787109,"2021-11-10 10:22:00",1636561935.58879,"standing2",1
1,1,1,"experiment","standing",2,11,"switch","incongruent","dashed","square","blue","right","right","yes",1317.56019592285,"2021-11-10 10:22:00",1636561938.25609,"standing2",1
1,1,1,"experiment","standing",2,12,"noswitch","congruent","dashed","triangle","blue","left","left","yes",914.854049682617,"2021-11-10 10:22:00",1636561940.50124,"standing2",1
1,1,1,"experiment","standing",2,13,"switch","incongruent","solid","square","blue","left","left","yes",1311.75398826599,"2021-11-10 10:22:00",1636561943.16014,"standing2",1
1,1,1,"experiment","standing",2,14,"noswitch","incongruent","solid","square","blue","left","left","yes",709.052085876465,"2021-11-10 10:22:00",1636561945.22743,"standing2",1
1,1,1,"experiment","standing",2,15,"noswitch","incongruent","solid","triangle","yellow","right","right","yes",783.571004867554,"2021-11-10 10:22:00",1636561947.35496,"standing2",1
1,1,1,"experiment","standing",2,16,"noswitch","congruent","solid","triangle","blue","left","left","yes",467.357873916626,"2021-11-10 10:22:00",1636561949.18374,"standing2",1
1,1,1,"experiment","standing",2,17,"noswitch","congruent","solid","triangle","blue","left","left","yes",462.553024291992,"2021-11-10 10:22:00",1636561950.95487,"standing2",1
1,1,1,"experiment","standing",2,18,"switch","congruent","dashed","square","yellow","right","right","yes",1337.62907981873,"2021-11-10 10:22:00",1636561953.67523,"standing2",1
1,1,1,"experiment","standing",2,19,"noswitch","incongruent","dashed","triangle","yellow","left","left","yes",1073.32110404968,"2021-11-10 10:22:00",1636561956.1014,"standing2",1
1,1,1,"experiment","standing",2,20,"noswitch","incongruent","dashed","square","blue","right","right","yes",500.280857086182,"2021-11-10 10:22:00",1636561957.93149,"standing2",1
1,1,1,"experiment","standing",2,21,"noswitch","congruent","dashed","square","yellow","right","right","yes",1227.28705406189,"2021-11-10 10:22:00",1636561960.53184,"standing2",1
1,1,1,"experiment","standing",2,22,"switch","congruent","solid","triangle","blue","left","left","yes",470.523834228516,"2021-11-10 10:22:00",1636561962.36388,"standing2",1
1,1,1,"experiment","standing",2,23,"noswitch","congruent","solid","square","yellow","right","right","yes",964.457035064697,"2021-11-10 10:22:00",1636561964.67082,"standing2",1
1,1,1,"experiment","standing",2,24,"switch","congruent","dashed","square","yellow","right","right","yes",775.568962097168,"2021-11-10 10:22:00",1636561966.79704,"standing2",1
1,1,1,"experiment","standing",2,25,"switch","congruent","solid","square","yellow","right","right","yes",1008.3749294281,"2021-11-10 10:22:00",1636561969.1596,"standing2",1
1,1,1,"experiment","standing",2,26,"noswitch","congruent","solid","square","yellow","right","right","yes",1405.3590297699,"2021-11-10 10:22:00",1636561971.93705,"standing2",1
1,1,1,"experiment","standing",2,27,"noswitch","congruent","solid","square","yellow","right","right","yes",408.607006072998,"2021-11-10 10:22:00",1636561973.70815,"standing2",1
1,1,1,"experiment","standing",2,28,"switch","incongruent","dashed","triangle","yellow","left","left","yes",660.452127456665,"2021-11-10 10:22:00",1636561975.72084,"standing2",1
1,1,1,"experiment","standing",2,29,"switch","congruent","solid","square","yellow","right","right","yes",926.021099090576,"2021-11-10 10:22:00",1636561978.02441,"standing2",1
1,1,1,"experiment","standing",2,31,"switch","incongruent","solid","triangle","yellow","left","right","no",1260.12206077576,"2021-11-10 10:22:00",1636561988.39148,"standing2",0
1,1,1,"experiment","standing",2,32,"switch","congruent","dashed","triangle","blue","left","left","yes",448.47297668457,"2021-11-10 10:22:00",1636561995.16035,"standing2",1
1,1,1,"experiment","standing",2,33,"switch","incongruent","solid","triangle","yellow","right","right","yes",371.355056762695,"2021-11-10 10:22:00",1636561996.87605,"standing2",1
1,1,1,"experiment","standing",2,34,"switch","incongruent","dashed","triangle","yellow","left","left","yes",1158.86092185974,"2021-11-10 10:22:00",1636561999.35568,"standing2",1
1,1,1,"experiment","standing",2,35,"noswitch","congruent","dashed","triangle","blue","left","left","yes",344.552040100098,"2021-11-10 10:22:00",1636562001.00774,"standing2",1
1,1,1,"experiment","standing",2,36,"noswitch","incongruent","dashed","triangle","yellow","left","left","yes",460.844039916992,"2021-11-10 10:22:00",1636562002.77864,"standing2",1
1,1,1,"experiment","standing",2,37,"noswitch","congruent","dashed","triangle","blue","left","left","yes",1226.43995285034,"2021-11-10 10:22:00",1636562005.32117,"standing2",1
1,1,1,"experiment","standing",2,38,"switch","incongruent","solid","square","blue","left","left","yes",1019.35791969299,"2021-11-10 10:22:00",1636562007.68488,"standing2",1
1,1,1,"experiment","standing",2,39,"noswitch","congruent","solid","triangle","blue","left","left","yes",655.678033828735,"2021-11-10 10:22:00",1636562009.69349,"standing2",1
1,1,1,"experiment","standing",2,40,"switch","incongruent","dashed","triangle","yellow","left","left","yes",406.338930130005,"2021-11-10 10:22:00",1636562011.46373,"standing2",1
1,1,1,"experiment","standing",2,42,"noswitch","incongruent","solid","square","blue","left","left","yes",1086.10200881958,"2021-11-10 10:22:00",1636562021.59676,"standing2",1
1,1,1,"experiment","standing",2,43,"noswitch","incongruent","solid","square","blue","left","left","yes",373.398065567017,"2021-11-10 10:22:00",1636562023.30915,"standing2",1
1,1,1,"experiment","standing",2,44,"noswitch","congruent","solid","square","yellow","right","right","yes",386.338949203491,"2021-11-10 10:22:00",1636562025.08374,"standing2",1
1,1,1,"experiment","standing",2,45,"switch","congruent","dashed","triangle","blue","left","left","yes",513.144969940186,"2021-11-10 10:22:00",1636562026.9137,"standing2",1
1,1,1,"experiment","standing",2,46,"switch","incongruent","solid","triangle","yellow","right","right","yes",432.600021362305,"2021-11-10 10:22:00",1636562028.68936,"standing2",1
1,1,1,"experiment","standing",2,47,"noswitch","congruent","solid","triangle","blue","left","left","yes",546.702861785889,"2021-11-10 10:22:00",1636562030.57996,"standing2",1
1,1,1,"experiment","standing",2,48,"switch","incongruent","dashed","square","blue","right","right","yes",1082.22699165344,"2021-11-10 10:22:00",1636562033.00477,"standing2",1
1,1,1,"experiment","standing",2,49,"noswitch","congruent","dashed","square","yellow","right","right","yes",307.595014572143,"2021-11-10 10:22:00",1636562034.65607,"standing2",1
1,1,1,"experiment","standing",3,2,"noswitch","congruent","solid","square","yellow","right","right","yes",510.826826095581,"2021-11-10 10:22:00",1636562054.73174,"standing3",1
1,1,1,"experiment","standing",3,3,"switch","incongruent","dashed","square","blue","right","right","yes",721.444845199585,"2021-11-10 10:22:00",1636562056.79975,"standing3",1
1,1,1,"experiment","standing",3,4,"switch","incongruent","solid","square","blue","left","left","yes",821.382999420166,"2021-11-10 10:22:00",1636562058.98861,"standing3",1
1,1,1,"experiment","standing",3,5,"noswitch","incongruent","solid","square","blue","left","left","yes",524.496078491211,"2021-11-10 10:22:00",1636562060.87782,"standing3",1
1,1,1,"experiment","standing",3,6,"switch","incongruent","dashed","triangle","yellow","left","left","yes",731.951951980591,"2021-11-10 10:22:00",1636562062.94526,"standing3",1
1,1,1,"experiment","standing",3,7,"noswitch","congruent","dashed","triangle","blue","left","left","yes",571.313858032227,"2021-11-10 10:22:00",1636562064.83655,"standing3",1
1,1,1,"experiment","standing",3,8,"switch","incongruent","solid","triangle","yellow","right","right","yes",391.242027282715,"2021-11-10 10:22:00",1636562066.611,"standing3",1
1,1,1,"experiment","standing",3,9,"noswitch","congruent","solid","triangle","blue","left","left","yes",1152.6780128479,"2021-11-10 10:22:00",1636562069.09239,"standing3",1
1,1,1,"experiment","standing",3,10,"switch","congruent","dashed","square","yellow","right","right","yes",655.874967575073,"2021-11-10 10:22:00",1636562071.10222,"standing3",1
1,1,1,"experiment","standing",3,11,"noswitch","congruent","dashed","triangle","blue","left","left","yes",845.545053482056,"2021-11-10 10:22:00",1636562073.29229,"standing3",1
1,1,1,"experiment","standing",3,12,"noswitch","incongruent","dashed","triangle","yellow","left","left","yes",606.415033340454,"2021-11-10 10:22:00",1636562075.24058,"standing3",1
1,1,1,"experiment","standing",3,13,"switch","congruent","solid","square","yellow","right","right","yes",640.229940414429,"2021-11-10 10:22:00",1636562077.24985,"standing3",1
1,1,1,"experiment","standing",3,14,"noswitch","congruent","solid","square","yellow","right","right","yes",877.238035202026,"2021-11-10 10:22:00",1636562079.49543,"standing3",1
1,1,1,"experiment","standing",3,15,"noswitch","incongruent","solid","square","blue","left","left","yes",439.073085784912,"2021-11-10 10:22:00",1636562081.2677,"standing3",1
1,1,1,"experiment","standing",3,16,"switch","congruent","dashed","square","yellow","right","right","yes",621.001958847046,"2021-11-10 10:22:00",1636562083.27672,"standing3",1
1,1,1,"experiment","standing",3,17,"noswitch","incongruent","dashed","square","blue","right","right","yes",765.243053436279,"2021-11-10 10:22:00",1636562085.37347,"standing3",1
1,1,1,"experiment","standing",3,18,"noswitch","congruent","dashed","square","yellow","right","right","yes",367.906093597412,"2021-11-10 10:22:00",1636562087.08647,"standing3",1
1,1,1,"experiment","standing",3,19,"noswitch","incongruent","dashed","square","blue","right","right","yes",418.676137924194,"2021-11-10 10:22:00",1636562088.85808,"standing3",1
1,1,1,"experiment","standing",3,20,"switch","incongruent","solid","triangle","yellow","right","right","yes",798.506021499634,"2021-11-10 10:22:00",1636562090.9859,"standing3",1
1,1,1,"experiment","standing",3,21,"switch","incongruent","dashed","square","blue","right","right","yes",788.370132446289,"2021-11-10 10:22:00",1636562093.11336,"standing3",1
1,1,1,"experiment","standing",3,22,"noswitch","congruent","dashed","square","yellow","right","right","yes",1139.60289955139,"2021-11-10 10:22:00",1636562095.59659,"standing3",1
1,1,1,"experiment","standing",3,23,"noswitch","congruent","dashed","triangle","blue","left","left","yes",551.039934158325,"2021-11-10 10:22:00",1636562097.49276,"standing3",1
1,1,1,"experiment","standing",3,24,"noswitch","incongruent","dashed","triangle","yellow","left","left","yes",354.882955551147,"2021-11-10 10:22:00",1636562099.20345,"standing3",1
1,1,1,"experiment","standing",3,25,"noswitch","incongruent","dashed","triangle","yellow","left","left","yes",276.481866836548,"2021-11-10 10:22:00",1636562100.79732,"standing3",1
1,1,1,"experiment","standing",3,26,"switch","incongruent","solid","triangle","yellow","right","right","yes",949.995994567871,"2021-11-10 10:22:00",1636562103.10895,"standing3",1
1,1,1,"experiment","standing",3,27,"switch","congruent","dashed","triangle","blue","left","left","yes",665.899991989136,"2021-11-10 10:22:00",1636562105.11878,"standing3",1
1,1,1,"experiment","standing",3,29,"switch","incongruent","dashed","square","blue","right","right","yes",1253.48615646362,"2021-11-10 10:22:00",1636562115.49035,"standing3",1
1,1,1,"experiment","standing",3,30,"switch","congruent","solid","triangle","blue","left","left","yes",496.422052383423,"2021-11-10 10:22:00",1636562117.31967,"standing3",1
1,1,1,"experiment","standing",3,31,"switch","incongruent","dashed","square","blue","right","right","yes",325.66499710083,"2021-11-10 10:22:00",1636562119.03422,"standing3",1
1,1,1,"experiment","standing",3,32,"switch","incongruent","solid","triangle","yellow","right","right","yes",1214.01190757751,"2021-11-10 10:22:00",1636562121.57448,"standing3",1
1,1,1,"experiment","standing",3,33,"noswitch","congruent","solid","triangle","blue","left","left","yes",353.82604598999,"2021-11-10 10:22:00",1636562123.28716,"standing3",1
1,1,1,"experiment","standing",3,34,"switch","incongruent","dashed","triangle","yellow","left","left","yes",1062.25204467773,"2021-11-10 10:22:00",1636562125.70964,"standing3",1
1,1,1,"experiment","standing",3,35,"switch","congruent","solid","triangle","blue","left","left","yes",344.483137130737,"2021-11-10 10:22:00",1636562127.36204,"standing3",1
1,1,1,"experiment","standing",3,36,"noswitch","congruent","solid","triangle","blue","left","left","yes",312.006950378418,"2021-11-10 10:22:00",1636562129.0147,"standing3",1
1,1,1,"experiment","standing",3,37,"switch","congruent","dashed","triangle","blue","right","left","no",897.269010543823,"2021-11-10 10:22:00",1636562131.26154,"standing3",0
1,1,1,"experiment","standing",3,39,"noswitch","incongruent","dashed","triangle","yellow","left","left","yes",519.90818977356,"2021-11-10 10:22:00",1636562145.91739,"standing3",1
1,1,1,"experiment","standing",3,40,"switch","incongruent","solid","square","blue","left","left","yes",601.188898086548,"2021-11-10 10:22:00",1636562147.86671,"standing3",1
1,1,1,"experiment","standing",3,41,"noswitch","congruent","solid","square","yellow","right","right","yes",542.535781860352,"2021-11-10 10:22:00",1636562149.75919,"standing3",1
1,1,1,"experiment","standing",3,42,"noswitch","congruent","solid","square","yellow","right","right","yes",519.273042678833,"2021-11-10 10:22:00",1636562151.64913,"standing3",1
1,1,1,"experiment","standing",3,43,"switch","congruent","dashed","triangle","blue","left","left","yes",1275.80285072327,"2021-11-10 10:22:00",1636562154.25128,"standing3",1
1,1,1,"experiment","standing",3,44,"switch","incongruent","solid","triangle","yellow","right","right","yes",992.21396446228,"2021-11-10 10:22:00",1636562156.61439,"standing3",1
1,1,1,"experiment","standing",3,45,"noswitch","congruent","solid","triangle","blue","left","left","yes",499.714136123657,"2021-11-10 10:22:00",1636562158.4452,"standing3",1
1,1,1,"experiment","standing",3,46,"noswitch","incongruent","solid","triangle","yellow","right","right","yes",959.315061569214,"2021-11-10 10:22:00",1636562160.75221,"standing3",1
1,1,1,"experiment","standing",3,47,"switch","congruent","dashed","square","yellow","right","right","yes",486.45806312561,"2021-11-10 10:22:00",1636562162.58265,"standing3",1
1,1,1,"experiment","standing",3,48,"switch","incongruent","solid","square","blue","left","left","yes",456.083059310913,"2021-11-10 10:22:00",1636562164.3542,"standing3",1
1,1,1,"experiment","standing",3,49,"noswitch","incongruent","solid","square","blue","left","left","yes",416.355133056641,"2021-11-10 10:22:00",1636562166.12598,"standing3",1
1,1,1,"experiment","standing",4,2,"switch","incongruent","dashed","triangle","yellow","left","left","yes",748.72088432312,"2021-11-10 10:22:00",1636562179.17971,"standing4",1
1,1,1,"experiment","standing",4,3,"switch","incongruent","solid","triangle","yellow","right","right","yes",473.336935043335,"2021-11-10 10:22:00",1636562181.01304,"standing4",1
1,1,1,"experiment","standing",4,4,"noswitch","congruent","solid","square","yellow","right","right","yes",413.03014755249,"2021-11-10 10:22:00",1636562182.78507,"standing4",1
1,1,1,"experiment","standing",4,5,"noswitch","congruent","solid","triangle","blue","left","left","yes",462.721824645996,"2021-11-10 10:22:00",1636562184.55577,"standing4",1
1,1,1,"experiment","standing",4,6,"noswitch","incongruent","solid","square","blue","left","left","yes",446.880102157593,"2021-11-10 10:22:00",1636562186.3266,"standing4",1
1,1,1,"experiment","standing",4,7,"noswitch","congruent","solid","square","yellow","right","right","yes",412.14394569397,"2021-11-10 10:22:00",1636562188.10264,"standing4",1
1,1,1,"experiment","standing",4,8,"switch","congruent","dashed","triangle","blue","left","left","yes",579.381942749023,"2021-11-10 10:22:00",1636562190.05504,"standing4",1
1,1,1,"experiment","standing",4,9,"noswitch","congruent","dashed","square","yellow","right","right","yes",784.741163253784,"2021-11-10 10:22:00",1636562192.18397,"standing4",1
1,1,1,"experiment","standing",4,10,"switch","incongruent","solid","triangle","yellow","right","right","yes",569.777011871338,"2021-11-10 10:22:00",1636562194.1314,"standing4",1
1,1,1,"experiment","standing",4,11,"switch","incongruent","dashed","triangle","yellow","right","left","no",562.62993812561,"2021-11-10 10:22:00",1636562196.02172,"standing4",0
1,1,1,"experiment","standing",4,12,"switch","congruent","solid","square","yellow","right","right","yes",750.368118286133,"2021-11-10 10:22:00",1636562203.14563,"standing4",1
1,1,1,"experiment","standing",4,13,"noswitch","incongruent","solid","square","blue","left","left","yes",519.684076309204,"2021-11-10 10:22:00",1636562205.03874,"standing4",1
1,1,1,"experiment","standing",4,14,"noswitch","incongruent","solid","square","blue","left","left","yes",899.706125259399,"2021-11-10 10:22:00",1636562207.28423,"standing4",1
1,1,1,"experiment","standing",4,15,"noswitch","congruent","solid","triangle","blue","left","left","yes",685.909032821655,"2021-11-10 10:22:00",1636562209.29281,"standing4",1
1,1,1,"experiment","standing",4,16,"switch","incongruent","dashed","square","blue","right","right","yes",673.375844955444,"2021-11-10 10:22:00",1636562211.30142,"standing4",1
1,1,1,"experiment","standing",4,17,"noswitch","incongruent","dashed","triangle","yellow","left","left","yes",1115.19408226013,"2021-11-10 10:22:00",1636562213.78589,"standing4",1
1,1,1,"experiment","standing",4,18,"noswitch","congruent","dashed","square","yellow","right","right","yes",465.101003646851,"2021-11-10 10:22:00",1636562215.61892,"standing4",1
1,1,1,"experiment","standing",4,20,"switch","incongruent","dashed","square","blue","right","right","yes",658.622980117798,"2021-11-10 10:22:00",1636562225.39143,"standing4",1
1,1,1,"experiment","standing",4,21,"switch","incongruent","solid","triangle","yellow","right","right","yes",346.625089645386,"2021-11-10 10:22:00",1636562227.10496,"standing4",1
1,1,1,"experiment","standing",4,22,"switch","incongruent","dashed","triangle","yellow","left","left","yes",1155.89118003845,"2021-11-10 10:22:00",1636562229.58728,"standing4",1
1,1,1,"experiment","standing",4,23,"noswitch","congruent","dashed","triangle","blue","left","left","yes",390.707015991211,"2021-11-10 10:22:00",1636562231.29775,"standing4",1
1,1,1,"experiment","standing",4,24,"switch","incongruent","solid","triangle","yellow","right","right","yes",571.079015731812,"2021-11-10 10:22:00",1636562233.24901,"standing4",1
1,1,1,"experiment","standing",4,25,"noswitch","incongruent","solid","square","blue","left","left","yes",430.644035339355,"2021-11-10 10:22:00",1636562235.02261,"standing4",1
1,1,1,"experiment","standing",4,26,"switch","incongruent","dashed","triangle","yellow","left","left","yes",342.303991317749,"2021-11-10 10:22:00",1636562236.67524,"standing4",1
1,1,1,"experiment","standing",4,27,"noswitch","congruent","dashed","triangle","blue","left","left","yes",622.202157974243,"2021-11-10 10:22:00",1636562238.62457,"standing4",1
1,1,1,"experiment","standing",4,28,"switch","incongruent","solid","square","blue","left","left","yes",1091.55201911926,"2021-11-10 10:22:00",1636562241.04553,"standing4",1
1,1,1,"experiment","standing",4,29,"noswitch","congruent","solid","square","yellow","right","right","yes",561.305999755859,"2021-11-10 10:22:00",1636562242.99591,"standing4",1
1,1,1,"experiment","standing",4,30,"switch","incongruent","dashed","square","blue","right","right","yes",608.325004577637,"2021-11-10 10:22:00",1636562244.94633,"standing4",1
1,1,1,"experiment","standing",4,31,"noswitch","incongruent","dashed","triangle","yellow","left","left","yes",496.742963790893,"2021-11-10 10:22:00",1636562246.77705,"standing4",1
1,1,1,"experiment","standing",4,32,"switch","congruent","solid","triangle","blue","left","left","yes",307.371139526367,"2021-11-10 10:22:00",1636562248.42969,"standing4",1
1,1,1,"experiment","standing",4,33,"noswitch","congruent","solid","triangle","blue","left","left","yes",831.746816635132,"2021-11-10 10:22:00",1636562250.61716,"standing4",1
1,1,1,"experiment","standing",4,34,"switch","congruent","dashed","triangle","blue","left","left","yes",672.744035720825,"2021-11-10 10:22:00",1636562252.62726,"standing4",1
1,1,1,"experiment","standing",4,35,"noswitch","incongruent","dashed","square","blue","right","right","yes",646.294832229614,"2021-11-10 10:22:00",1636562254.6362,"standing4",1
1,1,1,"experiment","standing",4,36,"noswitch","congruent","dashed","triangle","blue","left","left","yes",395.56884765625,"2021-11-10 10:22:00",1636562256.34733,"standing4",1
1,1,1,"experiment","standing",4,37,"switch","congruent","solid","square","yellow","right","right","yes",496.156215667725,"2021-11-10 10:22:00",1636562258.17821,"standing4",1
1,1,1,"experiment","standing",4,38,"noswitch","incongruent","solid","triangle","yellow","right","right","yes",340.52300453186,"2021-11-10 10:22:00",1636562259.88993,"standing4",1
1,1,1,"experiment","standing",4,39,"switch","congruent","dashed","square","yellow","right","right","yes",512.801170349121,"2021-11-10 10:22:00",1636562261.7815,"standing4",1
1,1,1,"experiment","standing",4,40,"switch","incongruent","solid","triangle","yellow","right","right","yes",1294.4130897522,"2021-11-10 10:22:00",1636562264.44264,"standing4",1
1,1,1,"experiment","standing",4,41,"switch","congruent","dashed","triangle","blue","left","left","yes",470.139026641846,"2021-11-10 10:22:00",1636562266.27551,"standing4",1
1,1,1,"experiment","standing",4,42,"noswitch","incongruent","dashed","square","blue","right","right","yes",446.650981903076,"2021-11-10 10:22:00",1636562268.10952,"standing4",1
1,1,1,"experiment","standing",4,43,"noswitch","incongruent","dashed","square","blue","right","right","yes",536.640882492065,"2021-11-10 10:22:00",1636562269.99941,"standing4",1
1,1,1,"experiment","standing",4,44,"noswitch","congruent","dashed","square","yellow","right","right","yes",536.94486618042,"2021-11-10 10:22:00",1636562271.8892,"standing4",1
1,1,1,"experiment","standing",4,45,"noswitch","congruent","dashed","square","yellow","right","right","yes",425.107955932617,"2021-11-10 10:22:00",1636562273.66079,"standing4",1
1,1,1,"experiment","standing",4,46,"switch","congruent","solid","triangle","blue","left","left","yes",353.837966918945,"2021-11-10 10:22:00",1636562275.37258,"standing4",1
1,1,1,"experiment","standing",4,47,"noswitch","incongruent","solid","square","blue","left","left","yes",298.217058181763,"2021-11-10 10:22:00",1636562277.02486,"standing4",1
1,1,1,"experiment","standing",4,48,"switch","congruent","dashed","square","yellow","right","right","yes",588.533878326416,"2021-11-10 10:22:00",1636562278.97773,"standing4",1
1,1,1,"experiment","standing",4,49,"switch","congruent","solid","triangle","blue","left","left","yes",354.804992675781,"2021-11-10 10:22:00",1636562280.68918,"standing4",1
1,1,1,"experiment","sitting",1,2,"switch","incongruent","solid","square","blue","left","left","yes",452.870845794678,"2021-11-10 10:22:00",1636562384.10489,"sitting1",1
1,1,1,"experiment","sitting",1,3,"switch","congruent","dashed","triangle","blue","left","left","yes",691.667079925537,"2021-11-10 10:22:00",1636562386.11356,"sitting1",1
1,1,1,"experiment","sitting",1,4,"switch","congruent","solid","triangle","blue","left","left","yes",452.577114105225,"2021-11-10 10:22:00",1636562387.88492,"sitting1",1
1,1,1,"experiment","sitting",1,5,"switch","congruent","dashed","square","yellow","right","right","yes",583.702087402344,"2021-11-10 10:22:00",1636562389.83699,"sitting1",1
1,1,1,"experiment","sitting",1,6,"noswitch","congruent","dashed","triangle","blue","left","left","yes",715.329170227051,"2021-11-10 10:22:00",1636562391.90681,"sitting1",1
1,1,1,"experiment","sitting",1,7,"noswitch","incongruent","dashed","square","blue","right","right","yes",495.442152023315,"2021-11-10 10:22:00",1636562393.73753,"sitting1",1
1,1,1,"experiment","sitting",1,8,"noswitch","incongruent","dashed","triangle","yellow","left","left","yes",1287.25600242615,"2021-11-10 10:22:00",1636562396.33854,"sitting1",1
1,1,1,"experiment","sitting",1,9,"switch","congruent","solid","triangle","blue","left","left","yes",476.567983627319,"2021-11-10 10:22:00",1636562398.16958,"sitting1",1
1,1,1,"experiment","sitting",1,10,"noswitch","incongruent","solid","square","blue","left","left","yes",318.124055862427,"2021-11-10 10:22:00",1636562399.82444,"sitting1",1
1,1,1,"experiment","sitting",1,11,"switch","congruent","dashed","square","yellow","right","right","yes",441.326856613159,"2021-11-10 10:22:00",1636562401.59717,"sitting1",1
1,1,1,"experiment","sitting",1,12,"noswitch","incongruent","dashed","square","blue","right","right","yes",680.41205406189,"2021-11-10 10:22:00",1636562403.6047,"sitting1",1
1,1,1,"experiment","sitting",1,13,"noswitch","incongruent","dashed","square","blue","right","right","yes",383.733034133911,"2021-11-10 10:22:00",1636562405.31738,"sitting1",1
1,1,1,"experiment","sitting",1,15,"switch","congruent","dashed","square","yellow","right","right","yes",735.719203948975,"2021-11-10 10:22:00",1636562415.15878,"sitting1",1
1,1,1,"experiment","sitting",1,16,"switch","incongruent","solid","triangle","yellow","right","right","yes",405.772924423218,"2021-11-10 10:22:00",1636562416.92875,"sitting1",1
1,1,1,"experiment","sitting",1,17,"switch","incongruent","dashed","square","blue","left","right","no",1047.45697975159,"2021-11-10 10:22:00",1636562419.29266,"sitting1",0
1,1,1,"experiment","sitting",1,18,"noswitch","congruent","dashed","triangle","blue","left","left","yes",950.827121734619,"2021-11-10 10:22:00",1636562426.5972,"sitting1",1
1,1,1,"experiment","sitting",1,19,"noswitch","incongruent","dashed","triangle","yellow","left","left","yes",338.280200958252,"2021-11-10 10:22:00",1636562428.25056,"sitting1",1
1,1,1,"experiment","sitting",1,20,"noswitch","congruent","dashed","triangle","blue","left","left","yes",326.553106307983,"2021-11-10 10:22:00",1636562429.90325,"sitting1",1
1,1,1,"experiment","sitting",1,21,"switch","incongruent","solid","triangle","yellow","right","right","yes",481.61506652832,"2021-11-10 10:22:00",1636562431.73977,"sitting1",1
1,1,1,"experiment","sitting",1,22,"switch","congruent","dashed","triangle","blue","left","left","yes",747.503042221069,"2021-11-10 10:22:00",1636562433.80714,"sitting1",1
1,1,1,"experiment","sitting",1,23,"switch","congruent","solid","square","yellow","right","right","yes",495.150804519653,"2021-11-10 10:22:00",1636562435.63632,"sitting1",1
1,1,1,"experiment","sitting",1,24,"noswitch","congruent","solid","square","yellow","right","right","yes",334.04016494751,"2021-11-10 10:22:00",1636562437.34837,"sitting1",1
1,1,1,"experiment","sitting",1,25,"switch","congruent","dashed","square","yellow","right","right","yes",491.097927093506,"2021-11-10 10:22:00",1636562439.1794,"sitting1",1
1,1,1,"experiment","sitting",1,27,"switch","incongruent","solid","triangle","yellow","right","right","yes",1366.56999588013,"2021-11-10 10:22:00",1636562449.60896,"sitting1",1
1,1,1,"experiment","sitting",1,28,"noswitch","congruent","solid","triangle","blue","left","left","yes",417.165040969849,"2021-11-10 10:22:00",1636562451.37945,"sitting1",1
1,1,1,"experiment","sitting",1,29,"noswitch","incongruent","solid","triangle","yellow","right","right","yes",696.475982666016,"2021-11-10 10:22:00",1636562453.44866,"sitting1",1
1,1,1,"experiment","sitting",1,30,"noswitch","incongruent","solid","square","blue","left","left","yes",396.542072296143,"2021-11-10 10:22:00",1636562455.16082,"sitting1",1
1,1,1,"experiment","sitting",1,31,"switch","incongruent","dashed","triangle","yellow","left","left","yes",736.799955368042,"2021-11-10 10:22:00",1636562457.2278,"sitting1",1
1,1,1,"experiment","sitting",1,32,"switch","congruent","solid","square","yellow","right","right","yes",904.968976974487,"2021-11-10 10:22:00",1636562459.47714,"sitting1",1
1,1,1,"experiment","sitting",1,33,"noswitch","congruent","solid","square","yellow","right","right","yes",339.845180511475,"2021-11-10 10:22:00",1636562461.18848,"sitting1",1
1,1,1,"experiment","sitting",1,34,"noswitch","congruent","solid","square","yellow","right","right","yes",390.735864639282,"2021-11-10 10:22:00",1636562462.96085,"sitting1",1
1,1,1,"experiment","sitting",1,35,"switch","incongruent","dashed","triangle","yellow","left","left","yes",768.356084823608,"2021-11-10 10:22:00",1636562465.09152,"sitting1",1
1,1,1,"experiment","sitting",1,36,"noswitch","congruent","dashed","square","yellow","right","right","yes",591.526031494141,"2021-11-10 10:22:00",1636562467.04078,"sitting1",1
1,1,1,"experiment","sitting",1,37,"noswitch","incongruent","dashed","triangle","yellow","left","left","yes",525.911092758179,"2021-11-10 10:22:00",1636562468.93554,"sitting1",1
1,1,1,"experiment","sitting",1,38,"noswitch","congruent","dashed","triangle","blue","left","left","yes",567.53396987915,"2021-11-10 10:22:00",1636562470.82379,"sitting1",1
1,1,1,"experiment","sitting",1,39,"switch","congruent","solid","triangle","blue","left","left","yes",419.147968292236,"2021-11-10 10:22:00",1636562472.59387,"sitting1",1
1,1,1,"experiment","sitting",1,40,"noswitch","incongruent","solid","square","blue","left","left","yes",475.615978240967,"2021-11-10 10:22:00",1636562474.42473,"sitting1",1
1,1,1,"experiment","sitting",1,42,"switch","congruent","solid","triangle","blue","left","left","yes",679.908037185669,"2021-11-10 10:22:00",1636562484.20117,"sitting1",1
1,1,1,"experiment","sitting",1,43,"noswitch","incongruent","solid","square","blue","left","left","yes",445.724010467529,"2021-11-10 10:22:00",1636562485.97269,"sitting1",1
1,1,1,"experiment","sitting",1,44,"switch","congruent","dashed","square","yellow","right","right","yes",532.424926757812,"2021-11-10 10:22:00",1636562487.86459,"sitting1",1
1,1,1,"experiment","sitting",1,45,"switch","congruent","solid","triangle","blue","left","left","yes",394.301891326904,"2021-11-10 10:22:00",1636562489.57593,"sitting1",1
1,1,1,"experiment","sitting",1,46,"noswitch","incongruent","solid","triangle","yellow","right","right","yes",403.478145599365,"2021-11-10 10:22:00",1636562491.34648,"sitting1",1
1,1,1,"experiment","sitting",1,47,"noswitch","congruent","solid","square","yellow","right","right","yes",553.273916244507,"2021-11-10 10:22:00",1636562493.23622,"sitting1",1
1,1,1,"experiment","sitting",1,48,"noswitch","incongruent","solid","triangle","yellow","right","right","yes",468.28293800354,"2021-11-10 10:22:00",1636562495.06755,"sitting1",1
1,1,1,"experiment","sitting",1,49,"switch","incongruent","dashed","triangle","yellow","left","left","yes",929.471969604492,"2021-11-10 10:22:00",1636562497.31393,"sitting1",1
1,1,1,"experiment","sitting",2,2,"switch","incongruent","solid","triangle","yellow","right","right","yes",719.969034194946,"2021-11-10 10:22:00",1636562509.79981,"sitting2",1
1,1,1,"experiment","sitting",2,3,"noswitch","congruent","solid","triangle","blue","left","left","yes",510.102987289429,"2021-11-10 10:22:00",1636562511.62988,"sitting2",1
1,1,1,"experiment","sitting",2,4,"noswitch","congruent","solid","triangle","blue","left","left","yes",986.886978149414,"2021-11-10 10:22:00",1636562513.93424,"sitting2",1
1,1,1,"experiment","sitting",2,5,"noswitch","incongruent","solid","square","blue","left","left","yes",454.377174377441,"2021-11-10 10:22:00",1636562515.70643,"sitting2",1
1,1,1,"experiment","sitting",2,6,"noswitch","congruent","solid","square","yellow","right","right","yes",1074.54395294189,"2021-11-10 10:22:00",1636562518.12842,"sitting2",1
1,1,1,"experiment","sitting",2,7,"switch","congruent","dashed","triangle","blue","left","left","yes",437.031984329224,"2021-11-10 10:22:00",1636562519.89837,"sitting2",1
1,1,1,"experiment","sitting",2,8,"noswitch","incongruent","dashed","square","blue","right","right","yes",1059.02910232544,"2021-11-10 10:22:00",1636562522.32653,"sitting2",1
1,1,1,"experiment","sitting",2,9,"noswitch","incongruent","dashed","square","blue","right","right","yes",725.291967391968,"2021-11-10 10:22:00",1636562524.39328,"sitting2",1
1,1,1,"experiment","sitting",2,10,"switch","incongruent","solid","triangle","yellow","right","right","yes",967.52119064331,"2021-11-10 10:22:00",1636562526.70116,"sitting2",1
1,1,1,"experiment","sitting",2,11,"noswitch","congruent","solid","triangle","blue","left","left","yes",703.255891799927,"2021-11-10 10:22:00",1636562528.77326,"sitting2",1
1,1,1,"experiment","sitting",2,13,"switch","congruent","solid","square","yellow","right","right","yes",635.342121124268,"2021-11-10 10:22:00",1636562538.55275,"sitting2",1
1,1,1,"experiment","sitting",2,14,"switch","congruent","dashed","triangle","blue","left","left","yes",882.904052734375,"2021-11-10 10:22:00",1636562540.80053,"sitting2",1
1,1,1,"experiment","sitting",2,15,"switch","incongruent","solid","square","blue","left","left","yes",652.070999145508,"2021-11-10 10:22:00",1636562542.80889,"sitting2",1
1,1,1,"experiment","sitting",2,16,"switch","congruent","dashed","square","yellow","right","right","yes",493.038177490234,"2021-11-10 10:22:00",1636562544.64024,"sitting2",1
1,1,1,"experiment","sitting",2,17,"noswitch","incongruent","dashed","triangle","yellow","left","left","yes",463.37890625,"2021-11-10 10:22:00",1636562546.47196,"sitting2",1
1,1,1,"experiment","sitting",2,18,"noswitch","incongruent","dashed","square","blue","right","right","yes",527.9860496521,"2021-11-10 10:22:00",1636562548.36355,"sitting2",1
1,1,1,"experiment","sitting",2,19,"noswitch","congruent","dashed","square","yellow","right","right","yes",533.885955810547,"2021-11-10 10:22:00",1636562550.25148,"sitting2",1
1,1,1,"experiment","sitting",2,20,"switch","congruent","solid","square","yellow","right","right","yes",507.143020629883,"2021-11-10 10:22:00",1636562552.14144,"sitting2",1
1,1,1,"experiment","sitting",2,21,"switch","incongruent","dashed","triangle","yellow","right","left","no",1136.53087615967,"2021-11-10 10:22:00",1636562554.62501,"sitting2",0
1,1,1,"experiment","sitting",2,22,"noswitch","congruent","dashed","triangle","blue","left","left","yes",625.787973403931,"2021-11-10 10:22:00",1636562561.57437,"sitting2",1
1,1,1,"experiment","sitting",2,23,"noswitch","congruent","dashed","triangle","blue","left","left","yes",429.851055145264,"2021-11-10 10:22:00",1636562563.34586,"sitting2",1
1,1,1,"experiment","sitting",2,24,"switch","incongruent","solid","square","blue","left","left","yes",421.040058135986,"2021-11-10 10:22:00",1636562565.11877,"sitting2",1
1,1,1,"experiment","sitting",2,25,"switch","congruent","dashed","triangle","blue","left","left","yes",419.490098953247,"2021-11-10 10:22:00",1636562566.88897,"sitting2",1
1,1,1,"experiment","sitting",2,26,"switch","congruent","solid","triangle","blue","left","left","yes",912.585973739624,"2021-11-10 10:22:00",1636562569.13539,"sitting2",1
1,1,1,"experiment","sitting",2,27,"noswitch","congruent","solid","triangle","blue","left","left","yes",769.592046737671,"2021-11-10 10:22:00",1636562571.26126,"sitting2",1
1,1,1,"experiment","sitting",2,28,"switch","congruent","dashed","square","yellow","right","right","yes",558.970212936401,"2021-11-10 10:22:00",1636562573.15106,"sitting2",1
1,1,1,"experiment","sitting",2,29,"switch","incongruent","solid","triangle","yellow","right","right","yes",306.808233261108,"2021-11-10 10:22:00",1636562574.80412,"sitting2",1
1,1,1,"experiment","sitting",2,30,"switch","incongruent","dashed","triangle","yellow","left","left","yes",1140.25616645813,"2021-11-10 10:22:00",1636562577.28871,"sitting2",1
1,1,1,"experiment","sitting",2,31,"noswitch","incongruent","dashed","triangle","yellow","left","left","yes",359.224081039429,"2021-11-10 10:22:00",1636562578.99947,"sitting2",1
1,1,1,"experiment","sitting",2,32,"switch","congruent","solid","square","yellow","right","right","yes",310.66083908081,"2021-11-10 10:22:00",1636562580.65423,"sitting2",1
1,1,1,"experiment","sitting",2,33,"switch","congruent","dashed","square","yellow","right","right","yes",489.049911499023,"2021-11-10 10:22:00",1636562582.48303,"sitting2",1
1,1,1,"experiment","sitting",2,35,"switch","incongruent","solid","square","blue","left","left","yes",1281.77905082703,"2021-11-10 10:22:00",1636562592.7926,"sitting2",1
1,1,1,"experiment","sitting",2,36,"noswitch","congruent","solid","triangle","blue","left","left","yes",383.255958557129,"2021-11-10 10:22:00",1636562594.50272,"sitting2",1
1,1,1,"experiment","sitting",2,37,"noswitch","congruent","solid","square","yellow","right","right","yes",373.782157897949,"2021-11-10 10:22:00",1636562596.2203,"sitting2",1
1,1,1,"experiment","sitting",2,38,"switch","incongruent","dashed","triangle","yellow","left","left","yes",524.158000946045,"2021-11-10 10:22:00",1636562598.11089,"sitting2",1
1,1,1,"experiment","sitting",2,39,"noswitch","congruent","dashed","square","yellow","right","right","yes",412.722110748291,"2021-11-10 10:22:00",1636562599.88321,"sitting2",1
1,1,1,"experiment","sitting",2,40,"noswitch","incongruent","dashed","square","blue","right","right","yes",665.755987167358,"2021-11-10 10:22:00",1636562601.89144,"sitting2",1
1,1,1,"experiment","sitting",2,41,"switch","incongruent","solid","triangle","yellow","right","right","yes",840.205192565918,"2021-11-10 10:22:00",1636562604.08006,"sitting2",1
1,1,1,"experiment","sitting",2,42,"noswitch","congruent","solid","square","yellow","right","right","yes",522.434949874878,"2021-11-10 10:22:00",1636562605.97208,"sitting2",1
1,1,1,"experiment","sitting",2,43,"noswitch","incongruent","solid","square","blue","left","left","yes",597.924947738647,"2021-11-10 10:22:00",1636562607.92476,"sitting2",1
1,1,1,"experiment","sitting",2,44,"noswitch","incongruent","solid","triangle","yellow","right","right","yes",374.224901199341,"2021-11-10 10:22:00",1636562609.64318,"sitting2",1
1,1,1,"experiment","sitting",2,45,"switch","incongruent","dashed","triangle","yellow","left","left","yes",581.627130508423,"2021-11-10 10:22:00",1636562611.59224,"sitting2",1
1,1,1,"experiment","sitting",2,46,"switch","incongruent","solid","square","blue","left","left","yes",741.24002456665,"2021-11-10 10:22:00",1636562613.65931,"sitting2",1
1,1,1,"experiment","sitting",2,47,"noswitch","incongruent","solid","triangle","yellow","right","right","yes",477.380990982056,"2021-11-10 10:22:00",1636562615.49606,"sitting2",1
1,1,1,"experiment","sitting",2,48,"switch","incongruent","dashed","square","blue","right","right","yes",495.285987854004,"2021-11-10 10:22:00",1636562617.32832,"sitting2",1
1,1,1,"experiment","sitting",2,49,"noswitch","congruent","dashed","triangle","blue","left","left","yes",849.133968353271,"2021-11-10 10:22:00",1636562619.5228,"sitting2",1
1,1,1,"experiment","sitting",3,2,"switch","congruent","solid","square","yellow","right","right","yes",521.147966384888,"2021-11-10 10:22:00",1636562629.96796,"sitting3",1
1,1,1,"experiment","sitting",3,3,"noswitch","congruent","solid","triangle","blue","left","left","yes",422.368049621582,"2021-11-10 10:22:00",1636562631.7405,"sitting3",1
1,1,1,"experiment","sitting",3,4,"switch","incongruent","dashed","triangle","yellow","left","left","yes",584.326982498169,"2021-11-10 10:22:00",1636562633.69096,"sitting3",1
1,1,1,"experiment","sitting",3,5,"switch","incongruent","solid","triangle","yellow","right","right","yes",448.071956634521,"2021-11-10 10:22:00",1636562635.52877,"sitting3",1
1,1,1,"experiment","sitting",3,6,"switch","congruent","dashed","triangle","blue","left","left","yes",489.675998687744,"2021-11-10 10:22:00",1636562637.36285,"sitting3",1
1,1,1,"experiment","sitting",3,7,"noswitch","incongruent","dashed","triangle","yellow","left","left","yes",318.325996398926,"2021-11-10 10:22:00",1636562639.01606,"sitting3",1
1,1,1,"experiment","sitting",3,8,"noswitch","congruent","dashed","square","yellow","right","right","yes",356.040000915527,"2021-11-10 10:22:00",1636562640.73068,"sitting3",1
1,1,1,"experiment","sitting",3,9,"switch","incongruent","solid","triangle","yellow","right","right","yes",571.202993392944,"2021-11-10 10:22:00",1636562642.6807,"sitting3",1
1,1,1,"experiment","sitting",3,10,"switch","incongruent","dashed","triangle","yellow","left","left","yes",342.840194702148,"2021-11-10 10:22:00",1636562644.33352,"sitting3",1
1,1,1,"experiment","sitting",3,11,"switch","incongruent","solid","triangle","yellow","right","right","yes",743.771076202393,"2021-11-10 10:22:00",1636562646.46043,"sitting3",1
1,1,1,"experiment","sitting",3,12,"noswitch","incongruent","solid","square","blue","left","left","yes",993.477821350098,"2021-11-10 10:22:00",1636562648.76524,"sitting3",1
1,1,1,"experiment","sitting",3,13,"noswitch","congruent","solid","square","yellow","right","right","yes",543.099880218506,"2021-11-10 10:22:00",1636562650.65833,"sitting3",1
1,1,1,"experiment","sitting",3,14,"noswitch","congruent","solid","triangle","blue","left","left","yes",363.699913024902,"2021-11-10 10:22:00",1636562652.37525,"sitting3",1
1,1,1,"experiment","sitting",3,15,"switch","congruent","dashed","triangle","blue","left","left","yes",573.092937469482,"2021-11-10 10:22:00",1636562654.26542,"sitting3",1
1,1,1,"experiment","sitting",3,16,"noswitch","congruent","dashed","triangle","blue","left","left","yes",416.607141494751,"2021-11-10 10:22:00",1636562656.03886,"sitting3",1
1,1,1,"experiment","sitting",3,17,"noswitch","congruent","dashed","triangle","blue","left","left","yes",410.324096679688,"2021-11-10 10:22:00",1636562657.81,"sitting3",1
1,1,1,"experiment","sitting",3,18,"noswitch","congruent","dashed","square","yellow","right","right","yes",418.773174285889,"2021-11-10 10:22:00",1636562659.58289,"sitting3",1
1,1,1,"experiment","sitting",3,19,"noswitch","incongruent","dashed","triangle","yellow","left","left","yes",802.942037582397,"2021-11-10 10:22:00",1636562661.709,"sitting3",1
1,1,1,"experiment","sitting",3,20,"switch","congruent","solid","triangle","blue","left","left","yes",532.594919204712,"2021-11-10 10:22:00",1636562663.59731,"sitting3",1
1,1,1,"experiment","sitting",3,21,"noswitch","incongruent","solid","triangle","yellow","right","right","yes",536.162137985229,"2021-11-10 10:22:00",1636562665.48672,"sitting3",1
1,1,1,"experiment","sitting",3,23,"switch","incongruent","dashed","square","blue","right","right","yes",615.943908691406,"2021-11-10 10:22:00",1636562675.15246,"sitting3",1
1,1,1,"experiment","sitting",3,24,"noswitch","incongruent","dashed","square","blue","right","right","yes",668.604135513306,"2021-11-10 10:22:00",1636562677.15918,"sitting3",1
1,1,1,"experiment","sitting",3,25,"switch","congruent","solid","triangle","blue","left","left","yes",693.488121032715,"2021-11-10 10:22:00",1636562679.16675,"sitting3",1
1,1,1,"experiment","sitting",3,26,"noswitch","incongruent","solid","square","blue","left","left","yes",393.908977508545,"2021-11-10 10:22:00",1636562680.87984,"sitting3",1
1,1,1,"experiment","sitting",3,27,"switch","incongruent","dashed","square","blue","right","right","yes",761.075973510742,"2021-11-10 10:22:00",1636562683.01014,"sitting3",1
1,1,1,"experiment","sitting",3,28,"noswitch","congruent","dashed","square","yellow","right","right","yes",302.762985229492,"2021-11-10 10:22:00",1636562684.66219,"sitting3",1
1,1,1,"experiment","sitting",3,29,"noswitch","congruent","dashed","square","yellow","right","right","yes",328.464984893799,"2021-11-10 10:22:00",1636562686.37555,"sitting3",1
1,1,1,"experiment","sitting",3,30,"switch","incongruent","solid","square","blue","left","left","yes",567.586898803711,"2021-11-10 10:22:00",1636562688.26518,"sitting3",1
1,1,1,"experiment","sitting",3,31,"switch","congruent","dashed","square","yellow","right","right","yes",655.16996383667,"2021-11-10 10:22:00",1636562690.27468,"sitting3",1
1,1,1,"experiment","sitting",3,32,"noswitch","incongruent","dashed","square","blue","right","right","yes",383.326053619385,"2021-11-10 10:22:00",1636562691.9871,"sitting3",1
1,1,1,"experiment","sitting",3,33,"switch","congruent","solid","triangle","blue","left","left","yes",472.556829452515,"2021-11-10 10:22:00",1636562693.8177,"sitting3",1
1,1,1,"experiment","sitting",3,34,"switch","incongruent","dashed","triangle","yellow","left","left","yes",341.063976287842,"2021-11-10 10:22:00",1636562695.47039,"sitting3",1
1,1,1,"experiment","sitting",3,35,"switch","incongruent","solid","square","blue","right","left","no",460.281133651733,"2021-11-10 10:22:00",1636562697.30508,"sitting3",0
1,1,1,"experiment","sitting",3,37,"noswitch","incongruent","solid","triangle","yellow","right","right","yes",559.072971343994,"2021-11-10 10:22:00",1636562711.96268,"sitting3",1
1,1,1,"experiment","sitting",3,38,"noswitch","congruent","solid","square","yellow","right","right","yes",448.907136917114,"2021-11-10 10:22:00",1636562713.79328,"sitting3",1
1,1,1,"experiment","sitting",3,39,"switch","congruent","dashed","triangle","blue","left","left","yes",335.861921310425,"2021-11-10 10:22:00",1636562715.44608,"sitting3",1
1,1,1,"experiment","sitting",3,40,"switch","congruent","solid","square","yellow","right","right","yes",554.180860519409,"2021-11-10 10:22:00",1636562717.33532,"sitting3",1
1,1,1,"experiment","sitting",3,41,"noswitch","incongruent","solid","square","blue","left","left","yes",427.763938903809,"2021-11-10 10:22:00",1636562719.10694,"sitting3",1
1,1,1,"experiment","sitting",3,42,"noswitch","congruent","solid","square","yellow","right","right","yes",636.177778244019,"2021-11-10 10:22:00",1636562721.11531,"sitting3",1
1,1,1,"experiment","sitting",3,43,"switch","incongruent","dashed","square","blue","right","right","yes",893.601894378662,"2021-11-10 10:22:00",1636562723.35923,"sitting3",1
1,1,1,"experiment","sitting",3,44,"switch","incongruent","solid","triangle","yellow","right","right","yes",869.379997253418,"2021-11-10 10:22:00",1636562725.60454,"sitting3",1
1,1,1,"experiment","sitting",3,45,"switch","congruent","dashed","triangle","blue","left","left","yes",494.630098342896,"2021-11-10 10:22:00",1636562727.43472,"sitting3",1
1,1,1,"experiment","sitting",3,46,"noswitch","incongruent","dashed","triangle","yellow","left","left","yes",285.0341796875,"2021-11-10 10:22:00",1636562729.02907,"sitting3",1
1,1,1,"experiment","sitting",3,47,"switch","incongruent","solid","square","blue","left","left","yes",843.741893768311,"2021-11-10 10:22:00",1636562731.21619,"sitting3",1
1,1,1,"experiment","sitting",3,48,"switch","congruent","dashed","square","yellow","right","right","yes",960.762023925781,"2021-11-10 10:22:00",1636562733.52114,"sitting3",1
1,1,1,"experiment","sitting",3,49,"noswitch","incongruent","dashed","square","blue","right","right","yes",662.008047103882,"2021-11-10 10:22:00",1636562735.529,"sitting3",1
1,1,1,"experiment","sitting",4,2,"noswitch","congruent","dashed","triangle","blue","left","left","yes",495.822906494141,"2021-11-10 10:22:00",1636562744.65619,"sitting4",1
1,1,1,"experiment","sitting",4,3,"noswitch","congruent","dashed","square","yellow","right","right","yes",592.920064926147,"2021-11-10 10:22:00",1636562746.60774,"sitting4",1
1,1,1,"experiment","sitting",4,4,"switch","incongruent","solid","triangle","yellow","right","right","yes",730.607986450195,"2021-11-10 10:22:00",1636562748.68143,"sitting4",1
1,1,1,"experiment","sitting",4,5,"switch","incongruent","dashed","triangle","yellow","left","left","yes",489.830017089844,"2021-11-10 10:22:00",1636562750.51583,"sitting4",1
1,1,1,"experiment","sitting",4,6,"switch","congruent","solid","square","yellow","right","right","yes",813.052892684937,"2021-11-10 10:22:00",1636562752.70787,"sitting4",1
1,1,1,"experiment","sitting",4,7,"noswitch","incongruent","solid","triangle","yellow","right","right","yes",354.714870452881,"2021-11-10 10:22:00",1636562754.41894,"sitting4",1
1,1,1,"experiment","sitting",4,8,"noswitch","incongruent","solid","square","blue","left","left","yes",436.07497215271,"2021-11-10 10:22:00",1636562756.19183,"sitting4",1
1,1,1,"experiment","sitting",4,9,"switch","congruent","dashed","triangle","blue","left","left","yes",313.935995101929,"2021-11-10 10:22:00",1636562757.84426,"sitting4",1
1,1,1,"experiment","sitting",4,10,"switch","congruent","solid","square","yellow","right","right","yes",372.382164001465,"2021-11-10 10:22:00",1636562759.56178,"sitting4",1
1,1,1,"experiment","sitting",4,11,"noswitch","congruent","solid","square","yellow","right","right","yes",533.367156982422,"2021-11-10 10:22:00",1636562761.44984,"sitting4",1
1,1,1,"experiment","sitting",4,12,"noswitch","incongruent","solid","square","blue","left","left","yes",479.135990142822,"2021-11-10 10:22:00",1636562763.2822,"sitting4",1
1,1,1,"experiment","sitting",4,13,"noswitch","congruent","solid","triangle","blue","left","left","yes",387.486934661865,"2021-11-10 10:22:00",1636562764.994,"sitting4",1
1,1,1,"experiment","sitting",4,14,"switch","incongruent","dashed","square","blue","right","right","yes",906.368017196655,"2021-11-10 10:22:00",1636562767.24605,"sitting4",1
1,1,1,"experiment","sitting",4,15,"switch","congruent","solid","square","yellow","right","right","yes",744.182109832764,"2021-11-10 10:22:00",1636562769.37253,"sitting4",1
1,1,1,"experiment","sitting",4,16,"noswitch","congruent","solid","triangle","blue","left","left","yes",538.374900817871,"2021-11-10 10:22:00",1636562771.26507,"sitting4",1
1,1,1,"experiment","sitting",4,17,"noswitch","congruent","solid","triangle","blue","left","left","yes",422.367095947266,"2021-11-10 10:22:00",1636562773.03631,"sitting4",1
1,1,1,"experiment","sitting",4,18,"switch","congruent","dashed","triangle","blue","left","left","yes",339.779853820801,"2021-11-10 10:22:00",1636562774.68949,"sitting4",1
1,1,1,"experiment","sitting",4,19,"noswitch","congruent","dashed","square","yellow","right","right","yes",522.974014282227,"2021-11-10 10:22:00",1636562776.58203,"sitting4",1
1,1,1,"experiment","sitting",4,20,"switch","congruent","solid","triangle","blue","left","left","yes",568.846940994263,"2021-11-10 10:22:00",1636562778.47176,"sitting4",1
1,1,1,"experiment","sitting",4,21,"switch","incongruent","dashed","triangle","yellow","left","left","yes",807.713985443115,"2021-11-10 10:22:00",1636562780.59767,"sitting4",1
1,1,1,"experiment","sitting",4,22,"switch","incongruent","solid","square","blue","right","left","no",441.78295135498,"2021-11-10 10:22:00",1636562782.43269,"sitting4",0
1,1,1,"experiment","sitting",4,23,"noswitch","congruent","solid","square","yellow","right","right","yes",447.713136672974,"2021-11-10 10:22:00",1636562789.25992,"sitting4",1
1,1,1,"experiment","sitting",4,24,"switch","incongruent","dashed","square","blue","right","right","yes",572.605133056641,"2021-11-10 10:22:00",1636562791.20811,"sitting4",1
1,1,1,"experiment","sitting",4,25,"switch","incongruent","solid","triangle","yellow","right","right","yes",1349.05290603638,"2021-11-10 10:22:00",1636562793.9263,"sitting4",1
1,1,1,"experiment","sitting",4,26,"switch","incongruent","dashed","triangle","yellow","left","left","yes",483.26301574707,"2021-11-10 10:22:00",1636562795.75858,"sitting4",1
1,1,1,"experiment","sitting",4,27,"noswitch","incongruent","dashed","triangle","yellow","left","left","yes",318.579196929932,"2021-11-10 10:22:00",1636562797.41139,"sitting4",1
1,1,1,"experiment","sitting",4,28,"noswitch","congruent","dashed","square","yellow","right","right","yes",543.440103530884,"2021-11-10 10:22:00",1636562799.30584,"sitting4",1
1,1,1,"experiment","sitting",4,29,"switch","congruent","solid","triangle","blue","left","left","yes",545.86386680603,"2021-11-10 10:22:00",1636562801.20103,"sitting4",1
1,1,1,"experiment","sitting",4,30,"noswitch","incongruent","solid","triangle","yellow","right","right","yes",709.527969360352,"2021-11-10 10:22:00",1636562803.2756,"sitting4",1
1,1,1,"experiment","sitting",4,31,"switch","congruent","dashed","square","yellow","right","right","yes",1121.84381484985,"2021-11-10 10:22:00",1636562805.76004,"sitting4",1
1,1,1,"experiment","sitting",4,32,"noswitch","congruent","dashed","square","yellow","right","right","yes",327.971935272217,"2021-11-10 10:22:00",1636562807.41404,"sitting4",1
1,1,1,"experiment","sitting",4,33,"noswitch","congruent","dashed","square","yellow","right","right","yes",502.944946289062,"2021-11-10 10:22:00",1636562809.24582,"sitting4",1
1,1,1,"experiment","sitting",4,34,"noswitch","congruent","dashed","triangle","blue","left","left","yes",581.357955932617,"2021-11-10 10:22:00",1636562811.1959,"sitting4",1
1,1,1,"experiment","sitting",4,35,"noswitch","congruent","dashed","triangle","blue","left","left","yes",310.203075408935,"2021-11-10 10:22:00",1636562812.85091,"sitting4",1
1,1,1,"experiment","sitting",4,36,"switch","incongruent","solid","square","blue","left","left","yes",518.026113510132,"2021-11-10 10:22:00",1636562814.68146,"sitting4",1
1,1,1,"experiment","sitting",4,37,"noswitch","incongruent","solid","square","blue","left","left","yes",364.590167999268,"2021-11-10 10:22:00",1636562816.39366,"sitting4",1
1,1,1,"experiment","sitting",4,38,"noswitch","incongruent","solid","triangle","yellow","right","right","yes",1056.71191215515,"2021-11-10 10:22:00",1636562818.81888,"sitting4",1
1,1,1,"experiment","sitting",4,39,"noswitch","incongruent","solid","square","blue","left","left","yes",728.815078735352,"2021-11-10 10:22:00",1636562820.89242,"sitting4",1
1,1,1,"experiment","sitting",4,40,"switch","incongruent","dashed","triangle","yellow","left","left","yes",598.415851593018,"2021-11-10 10:22:00",1636562822.84182,"sitting4",1
1,1,1,"experiment","sitting",4,41,"switch","congruent","solid","square","yellow","right","right","yes",1309.87811088562,"2021-11-10 10:22:00",1636562825.50485,"sitting4",1
1,1,1,"experiment","sitting",4,42,"switch","incongruent","dashed","square","blue","right","right","yes",634.443998336792,"2021-11-10 10:22:00",1636562827.51341,"sitting4",1
1,1,1,"experiment","sitting",4,43,"noswitch","congruent","dashed","triangle","blue","left","left","yes",369.355916976929,"2021-11-10 10:22:00",1636562829.2266,"sitting4",1
1,1,1,"experiment","sitting",4,44,"noswitch","incongruent","dashed","square","blue","right","right","yes",410.461902618408,"2021-11-10 10:22:00",1636562831.00127,"sitting4",1
1,1,1,"experiment","sitting",4,45,"noswitch","incongruent","dashed","square","blue","right","right","yes",472.035884857178,"2021-11-10 10:22:00",1636562832.83273,"sitting4",1
1,1,1,"experiment","sitting",4,46,"switch","congruent","solid","triangle","blue","left","left","yes",429.790019989014,"2021-11-10 10:22:00",1636562834.60867,"sitting4",1
1,1,1,"experiment","sitting",4,47,"switch","incongruent","dashed","triangle","yellow","left","left","yes",593.04404258728,"2021-11-10 10:22:00",1636562836.55849,"sitting4",1
1,1,1,"experiment","sitting",4,48,"switch","incongruent","solid","triangle","yellow","right","right","yes",595.049858093262,"2021-11-10 10:22:00",1636562838.5129,"sitting4",1
1,1,1,"experiment","sitting",4,49,"switch","incongruent","dashed","square","blue","right","right","yes",1000.75912475586,"2021-11-10 10:22:00",1636562840.87544,"sitting4",1
3,1,3,"experiment","standing",1,2,"switch","incongruent","solid","square","yellow","right","left","no",696.776151657104,"2021-11-10 12:20:00",1636568733.45107,"standing1",0
3,1,3,"experiment","standing",1,4,"noswitch","incongruent","solid","triangle","blue","right","right","yes",670.845985412598,"2021-11-10 12:20:00",1636568748.17975,"standing1",1
3,1,3,"experiment","standing",1,5,"noswitch","incongruent","solid","triangle","blue","right","right","yes",649.924039840698,"2021-11-10 12:20:00",1636568750.18924,"standing1",1
3,1,3,"experiment","standing",1,6,"switch","congruent","dashed","square","blue","right","right","yes",503.397941589355,"2021-11-10 12:20:00",1636568752.02253,"standing1",1
3,1,3,"experiment","standing",1,7,"noswitch","incongruent","dashed","square","yellow","left","right","no",808.284044265747,"2021-11-10 12:20:00",1636568754.15097,"standing1",0
3,1,3,"experiment","standing",1,8,"noswitch","incongruent","dashed","triangle","blue","left","left","yes",652.716875076294,"2021-11-10 12:20:00",1636568761.16186,"standing1",1
3,1,3,"experiment","standing",1,9,"noswitch","congruent","dashed","triangle","yellow","left","left","yes",677.795886993408,"2021-11-10 12:20:00",1636568763.17249,"standing1",1
3,1,3,"experiment","standing",1,10,"switch","congruent","solid","square","blue","right","right","yes",626.099109649658,"2021-11-10 12:20:00",1636568765.18338,"standing1",1
3,1,3,"experiment","standing",1,11,"noswitch","incongruent","solid","square","yellow","left","left","yes",554.780960083008,"2021-11-10 12:20:00",1636568767.07447,"standing1",1
3,1,3,"experiment","standing",1,12,"switch","congruent","dashed","square","blue","right","right","yes",670.403003692627,"2021-11-10 12:20:00",1636568769.08952,"standing1",1
3,1,3,"experiment","standing",1,13,"noswitch","incongruent","dashed","square","yellow","right","right","yes",621.294975280762,"2021-11-10 12:20:00",1636568771.03833,"standing1",1
3,1,3,"experiment","standing",1,14,"switch","congruent","solid","square","blue","right","right","yes",1107.03206062317,"2021-11-10 12:20:00",1636568773.52276,"standing1",1
3,1,3,"experiment","standing",1,15,"noswitch","congruent","solid","triangle","yellow","right","left","no",378.996133804321,"2021-11-10 12:20:00",1636568775.23879,"standing1",0
3,1,3,"experiment","standing",1,16,"noswitch","congruent","solid","square","blue","right","right","yes",476.927042007446,"2021-11-10 12:20:00",1636568782.07131,"standing1",1
3,1,3,"experiment","standing",1,17,"noswitch","incongruent","solid","triangle","blue","right","right","yes",646.129846572876,"2021-11-10 12:20:00",1636568784.08003,"standing1",1
3,1,3,"experiment","standing",1,18,"switch","incongruent","dashed","triangle","blue","left","left","yes",525.584936141968,"2021-11-10 12:20:00",1636568785.97028,"standing1",1
3,1,3,"experiment","standing",1,19,"noswitch","incongruent","dashed","triangle","blue","left","left","yes",457.623958587646,"2021-11-10 12:20:00",1636568787.74221,"standing1",1
3,1,3,"experiment","standing",1,20,"noswitch","congruent","dashed","triangle","yellow","left","left","yes",974.990844726562,"2021-11-10 12:20:00",1636568790.04827,"standing1",1
3,1,3,"experiment","standing",1,21,"switch","congruent","solid","triangle","yellow","left","left","yes",795.35698890686,"2021-11-10 12:20:00",1636568792.17578,"standing1",1
3,1,3,"experiment","standing",1,22,"noswitch","incongruent","solid","square","yellow","left","left","yes",843.816995620728,"2021-11-10 12:20:00",1636568794.36269,"standing1",1
3,1,3,"experiment","standing",1,23,"switch","congruent","dashed","triangle","yellow","left","left","yes",502.26902961731,"2021-11-10 12:20:00",1636568796.19401,"standing1",1
3,1,3,"experiment","standing",1,24,"switch","congruent","solid","square","blue","right","right","yes",703.536987304688,"2021-11-10 12:20:00",1636568798.26606,"standing1",1
3,1,3,"experiment","standing",1,25,"switch","congruent","dashed","triangle","yellow","left","left","yes",456.753015518188,"2021-11-10 12:20:00",1636568800.039,"standing1",1
3,1,3,"experiment","standing",1,26,"switch","incongruent","solid","square","yellow","right","left","no",559.403896331787,"2021-11-10 12:20:00",1636568801.93168,"standing1",0
3,1,3,"experiment","standing",1,28,"noswitch","incongruent","solid","triangle","blue","left","right","no",589.512825012207,"2021-11-10 12:20:00",1636568816.64107,"standing1",0
3,1,3,"experiment","standing",1,29,"noswitch","incongruent","solid","triangle","blue","right","right","yes",529.332160949707,"2021-11-10 12:20:00",1636568823.53764,"standing1",1
3,1,3,"experiment","standing",1,30,"switch","congruent","dashed","triangle","yellow","left","left","yes",318.817853927612,"2021-11-10 12:20:00",1636568825.19112,"standing1",1
3,1,3,"experiment","standing",1,32,"switch","incongruent","solid","square","yellow","left","left","yes",783.239841461182,"2021-11-10 12:20:00",1636568835.04814,"standing1",1
3,1,3,"experiment","standing",1,33,"noswitch","congruent","solid","square","blue","right","right","yes",400.93207359314,"2021-11-10 12:20:00",1636568836.82297,"standing1",1
3,1,3,"experiment","standing",1,34,"switch","incongruent","dashed","triangle","blue","left","left","yes",358.665943145752,"2021-11-10 12:20:00",1636568838.5402,"standing1",1
3,1,3,"experiment","standing",1,35,"noswitch","incongruent","dashed","square","yellow","right","right","yes",566.736936569214,"2021-11-10 12:20:00",1636568840.49075,"standing1",1
3,1,3,"experiment","standing",1,36,"noswitch","congruent","dashed","square","blue","right","right","yes",757.986068725586,"2021-11-10 12:20:00",1636568842.61712,"standing1",1
3,1,3,"experiment","standing",1,37,"noswitch","incongruent","dashed","triangle","blue","left","left","yes",463.979005813599,"2021-11-10 12:20:00",1636568844.44979,"standing1",1
3,1,3,"experiment","standing",1,38,"switch","congruent","solid","triangle","yellow","left","left","yes",496.946811676025,"2021-11-10 12:20:00",1636568846.28188,"standing1",1
3,1,3,"experiment","standing",1,39,"switch","incongruent","dashed","triangle","blue","left","left","yes",598.312139511108,"2021-11-10 12:20:00",1636568848.23222,"standing1",1
3,1,3,"experiment","standing",1,40,"noswitch","congruent","dashed","square","blue","right","right","yes",421.195983886719,"2021-11-10 12:20:00",1636568850.00752,"standing1",1
3,1,3,"experiment","standing",1,41,"switch","incongruent","solid","square","yellow","left","left","yes",425.91118812561,"2021-11-10 12:20:00",1636568851.78323,"standing1",1
3,1,3,"experiment","standing",1,42,"switch","congruent","dashed","square","blue","right","right","yes",580.231904983521,"2021-11-10 12:20:00",1636568853.74257,"standing1",1
3,1,3,"experiment","standing",1,43,"switch","congruent","solid","triangle","yellow","left","left","yes",400.323867797852,"2021-11-10 12:20:00",1636568855.51758,"standing1",1
3,1,3,"experiment","standing",1,44,"switch","incongruent","dashed","square","yellow","right","right","yes",534.055948257446,"2021-11-10 12:20:00",1636568857.41128,"standing1",1
3,1,3,"experiment","standing",1,45,"switch","congruent","solid","square","blue","right","right","yes",755.146980285645,"2021-11-10 12:20:00",1636568859.53784,"standing1",1
3,1,3,"experiment","standing",1,46,"switch","incongruent","dashed","square","yellow","left","right","no",384.485960006714,"2021-11-10 12:20:00",1636568861.24942,"standing1",0
3,1,3,"experiment","standing",1,47,"noswitch","congruent","dashed","square","blue","left","right","no",393.512964248657,"2021-11-10 12:20:00",1636568867.96271,"standing1",0
3,1,3,"experiment","standing",1,48,"switch","congruent","solid","triangle","yellow","left","left","yes",637.128114700317,"2021-11-10 12:20:00",1636568874.91812,"standing1",1
3,1,3,"experiment","standing",1,49,"switch","congruent","dashed","triangle","yellow","left","left","yes",459.243059158325,"2021-11-10 12:20:00",1636568876.69015,"standing1",1
3,1,3,"experiment","standing",2,2,"noswitch","congruent","dashed","square","blue","right","right","yes",388.572931289673,"2021-11-10 12:20:00",1636568906.2176,"standing2",1
3,1,3,"experiment","standing",2,3,"switch","congruent","solid","square","blue","right","right","yes",1124.7079372406,"2021-11-10 12:20:00",1636568908.70293,"standing2",1
3,1,3,"experiment","standing",2,4,"noswitch","congruent","solid","triangle","yellow","left","left","yes",526.504993438721,"2021-11-10 12:20:00",1636568910.59833,"standing2",1
3,1,3,"experiment","standing",2,5,"switch","congruent","dashed","triangle","yellow","left","left","yes",732.326030731201,"2021-11-10 12:20:00",1636568912.66893,"standing2",1
3,1,3,"experiment","standing",2,6,"noswitch","congruent","dashed","triangle","yellow","left","left","yes",432.068109512329,"2021-11-10 12:20:00",1636568914.44137,"standing2",1
3,1,3,"experiment","standing",2,7,"noswitch","congruent","dashed","triangle","yellow","left","left","yes",544.169902801514,"2021-11-10 12:20:00",1636568916.33284,"standing2",1
3,1,3,"experiment","standing",2,8,"switch","congruent","solid","triangle","yellow","left","left","yes",446.458101272583,"2021-11-10 12:20:00",1636568918.10623,"standing2",1
3,1,3,"experiment","standing",2,9,"noswitch","congruent","solid","square","blue","right","right","yes",738.332986831665,"2021-11-10 12:20:00",1636568920.23936,"standing2",1
3,1,3,"experiment","standing",2,10,"switch","incongruent","dashed","triangle","blue","right","left","no",996.696949005127,"2021-11-10 12:20:00",1636568922.60586,"standing2",0
3,1,3,"experiment","standing",2,11,"switch","incongruent","solid","triangle","blue","right","right","yes",696.485042572021,"2021-11-10 12:20:00",1636568929.6759,"standing2",1
3,1,3,"experiment","standing",2,12,"noswitch","incongruent","solid","square","yellow","left","left","yes",532.039880752563,"2021-11-10 12:20:00",1636568931.56962,"standing2",1
3,1,3,"experiment","standing",2,13,"noswitch","congruent","solid","triangle","yellow","left","left","yes",552.500009536743,"2021-11-10 12:20:00",1636568933.46198,"standing2",1
3,1,3,"experiment","standing",2,14,"switch","incongruent","dashed","square","yellow","right","right","yes",711.99893951416,"2021-11-10 12:20:00",1636568935.53457,"standing2",1
3,1,3,"experiment","standing",2,15,"switch","incongruent","solid","square","yellow","left","left","yes",767.474889755249,"2021-11-10 12:20:00",1636568937.66838,"standing2",1
3,1,3,"experiment","standing",2,16,"switch","congruent","dashed","square","blue","left","right","no",1332.89408683777,"2021-11-10 12:20:00",1636568940.33032,"standing2",0
3,1,3,"experiment","standing",2,17,"noswitch","congruent","dashed","square","blue","right","right","yes",766.755819320679,"2021-11-10 12:20:00",1636568947.43335,"standing2",1
3,1,3,"experiment","standing",2,18,"noswitch","incongruent","dashed","square","yellow","right","right","yes",670.562028884888,"2021-11-10 12:20:00",1636568949.44246,"standing2",1
3,1,3,"experiment","standing",2,19,"noswitch","incongruent","dashed","square","yellow","right","right","yes",677.265882492065,"2021-11-10 12:20:00",1636568951.45162,"standing2",1
3,1,3,"experiment","standing",2,20,"switch","congruent","solid","square","blue","right","right","yes",1139.29104804993,"2021-11-10 12:20:00",1636568953.93602,"standing2",1
3,1,3,"experiment","standing",2,21,"noswitch","congruent","solid","square","blue","right","right","yes",844.626903533936,"2021-11-10 12:20:00",1636568956.12339,"standing2",1
3,1,3,"experiment","standing",2,22,"noswitch","congruent","solid","square","blue","right","right","yes",524.448156356812,"2021-11-10 12:20:00",1636568958.01422,"standing2",1
3,1,3,"experiment","standing",2,23,"switch","incongruent","dashed","square","yellow","left","right","no",1309.20696258545,"2021-11-10 12:20:00",1636568960.67851,"standing2",0
3,1,3,"experiment","standing",2,24,"switch","incongruent","solid","square","yellow","right","left","no",814.807176589966,"2021-11-10 12:20:00",1636568967.87095,"standing2",0
3,1,3,"experiment","standing",2,25,"switch","congruent","dashed","square","blue","right","right","yes",450.788021087646,"2021-11-10 12:20:00",1636568974.70382,"standing2",1
3,1,3,"experiment","standing",2,26,"noswitch","congruent","dashed","triangle","yellow","left","left","yes",653.402090072632,"2021-11-10 12:20:00",1636568976.71604,"standing2",1
3,1,3,"experiment","standing",2,27,"switch","incongruent","solid","triangle","blue","right","right","yes",641.499042510986,"2021-11-10 12:20:00",1636568978.72869,"standing2",1
3,1,3,"experiment","standing",2,28,"noswitch","congruent","solid","triangle","yellow","left","left","yes",543.379783630371,"2021-11-10 12:20:00",1636568980.62082,"standing2",1
3,1,3,"experiment","standing",2,29,"noswitch","incongruent","solid","triangle","blue","right","right","yes",722.110033035278,"2021-11-10 12:20:00",1636568982.6925,"standing2",1
3,1,3,"experiment","standing",2,30,"switch","incongruent","dashed","triangle","blue","left","left","yes",1168.0600643158,"2021-11-10 12:20:00",1636568985.17558,"standing2",1
3,1,3,"experiment","standing",2,31,"noswitch","congruent","dashed","square","blue","right","right","yes",552.725076675415,"2021-11-10 12:20:00",1636568987.06742,"standing2",1
3,1,3,"experiment","standing",2,32,"noswitch","incongruent","dashed","square","yellow","right","right","yes",541.810989379883,"2021-11-10 12:20:00",1636568988.95924,"standing2",1
3,1,3,"experiment","standing",2,33,"noswitch","congruent","dashed","triangle","yellow","left","left","yes",810.939073562622,"2021-11-10 12:20:00",1636568991.08692,"standing2",1
3,1,3,"experiment","standing",2,34,"switch","incongruent","solid","square","yellow","right","left","no",911.404848098755,"2021-11-10 12:20:00",1636568993.33657,"standing2",0
3,1,3,"experiment","standing",2,35,"noswitch","congruent","solid","triangle","yellow","left","left","yes",816.920042037964,"2021-11-10 12:20:00",1636569000.46509,"standing2",1
3,1,3,"experiment","standing",2,36,"noswitch","incongruent","solid","triangle","blue","left","right","no",784.074068069458,"2021-11-10 12:20:00",1636569002.59385,"standing2",0
3,1,3,"experiment","standing",2,37,"noswitch","incongruent","solid","triangle","blue","right","right","yes",836.132049560547,"2021-11-10 12:20:00",1636569009.78713,"standing2",1
3,1,3,"experiment","standing",2,38,"switch","incongruent","dashed","square","yellow","right","right","yes",648.197889328003,"2021-11-10 12:20:00",1636569011.79663,"standing2",1
3,1,3,"experiment","standing",2,39,"switch","incongruent","solid","triangle","blue","right","right","yes",864.331960678101,"2021-11-10 12:20:00",1636569014.04256,"standing2",1
3,1,3,"experiment","standing",2,40,"switch","incongruent","dashed","triangle","blue","left","left","yes",479.75492477417,"2021-11-10 12:20:00",1636569015.87611,"standing2",1
3,1,3,"experiment","standing",2,41,"noswitch","incongruent","dashed","triangle","blue","left","left","yes",557.042121887207,"2021-11-10 12:20:00",1636569017.76759,"standing2",1
3,1,3,"experiment","standing",2,42,"switch","congruent","solid","square","blue","right","right","yes",607.208013534546,"2021-11-10 12:20:00",1636569019.72027,"standing2",1
3,1,3,"experiment","standing",2,44,"switch","congruent","dashed","triangle","yellow","left","left","yes",493.858098983765,"2021-11-10 12:20:00",1636569029.27152,"standing2",1
3,1,3,"experiment","standing",2,45,"switch","incongruent","solid","square","yellow","right","left","no",633.563995361328,"2021-11-10 12:20:00",1636569031.28513,"standing2",0
3,1,3,"experiment","standing",2,46,"switch","congruent","dashed","square","blue","right","right","yes",627.387046813965,"2021-11-10 12:20:00",1636569038.295,"standing2",1
3,1,3,"experiment","standing",2,47,"noswitch","incongruent","dashed","triangle","blue","left","left","yes",529.274940490723,"2021-11-10 12:20:00",1636569040.18962,"standing2",1
3,1,3,"experiment","standing",2,48,"switch","congruent","solid","triangle","yellow","left","left","yes",558.979034423828,"2021-11-10 12:20:00",1636569042.08037,"standing2",1
3,1,3,"experiment","standing",2,49,"switch","incongruent","dashed","triangle","blue","right","left","no",589.571952819824,"2021-11-10 12:20:00",1636569044.03608,"standing2",0
3,1,3,"experiment","standing",3,2,"switch","congruent","solid","triangle","yellow","left","left","yes",980.438947677612,"2021-11-10 12:20:00",1636569067.26183,"standing3",1
3,1,3,"experiment","standing",3,3,"noswitch","incongruent","solid","triangle","blue","left","right","no",1059.23414230347,"2021-11-10 12:20:00",1636569069.68785,"standing3",0
3,1,3,"experiment","standing",3,4,"switch","incongruent","dashed","triangle","blue","left","left","yes",460.089921951294,"2021-11-10 12:20:00",1636569076.52353,"standing3",1
3,1,3,"experiment","standing",3,5,"switch","congruent","solid","triangle","yellow","left","left","yes",607.922077178955,"2021-11-10 12:20:00",1636569078.47219,"standing3",1
3,1,3,"experiment","standing",3,6,"noswitch","congruent","solid","square","blue","right","right","yes",733.829021453857,"2021-11-10 12:20:00",1636569080.54026,"standing3",1
3,1,3,"experiment","standing",3,7,"switch","congruent","dashed","triangle","yellow","left","left","yes",651.343107223511,"2021-11-10 12:20:00",1636569082.5504,"standing3",1
3,1,3,"experiment","standing",3,8,"noswitch","incongruent","dashed","triangle","blue","left","left","yes",1219.00296211243,"2021-11-10 12:20:00",1636569085.09388,"standing3",1
3,1,3,"experiment","standing",3,9,"noswitch","congruent","dashed","square","blue","right","right","yes",1057.99412727356,"2021-11-10 12:20:00",1636569087.52308,"standing3",1
3,1,3,"experiment","standing",3,10,"noswitch","congruent","dashed","triangle","yellow","left","left","yes",629.246950149536,"2021-11-10 12:20:00",1636569089.47299,"standing3",1
3,1,3,"experiment","standing",3,11,"switch","incongruent","solid","triangle","blue","right","right","yes",708.018064498901,"2021-11-10 12:20:00",1636569091.54412,"standing3",1
3,1,3,"experiment","standing",3,12,"noswitch","congruent","solid","triangle","yellow","left","left","yes",1125.4301071167,"2021-11-10 12:20:00",1636569094.02652,"standing3",1
3,1,3,"experiment","standing",3,13,"noswitch","congruent","solid","square","blue","right","right","yes",519.098997116089,"2021-11-10 12:20:00",1636569095.91884,"standing3",1
3,1,3,"experiment","standing",3,14,"switch","incongruent","dashed","triangle","blue","left","left","yes",423.133850097656,"2021-11-10 12:20:00",1636569097.69076,"standing3",1
3,1,3,"experiment","standing",3,15,"noswitch","congruent","dashed","triangle","yellow","left","left","yes",653.095006942749,"2021-11-10 12:20:00",1636569099.69952,"standing3",1
3,1,3,"experiment","standing",3,16,"switch","incongruent","solid","square","yellow","left","left","yes",1334.40089225769,"2021-11-10 12:20:00",1636569102.3625,"standing3",1
3,1,3,"experiment","standing",3,17,"noswitch","congruent","solid","square","blue","right","right","yes",698.263883590698,"2021-11-10 12:20:00",1636569104.43566,"standing3",1
3,1,3,"experiment","standing",3,18,"switch","incongruent","dashed","square","yellow","right","right","yes",920.69411277771,"2021-11-10 12:20:00",1636569106.68174,"standing3",1
3,1,3,"experiment","standing",3,19,"noswitch","incongruent","dashed","square","yellow","right","right","yes",444.903135299683,"2021-11-10 12:20:00",1636569108.45595,"standing3",1
3,1,3,"experiment","standing",3,20,"switch","incongruent","solid","triangle","blue","right","right","yes",1297.4681854248,"2021-11-10 12:20:00",1636569111.12047,"standing3",1
3,1,3,"experiment","standing",3,21,"switch","incongruent","dashed","triangle","blue","left","left","yes",882.748126983643,"2021-11-10 12:20:00",1636569113.3682,"standing3",1
3,1,3,"experiment","standing",3,22,"switch","incongruent","solid","square","yellow","right","left","no",749.205112457275,"2021-11-10 12:20:00",1636569115.49578,"standing3",0
3,1,3,"experiment","standing",3,23,"noswitch","congruent","solid","triangle","yellow","right","left","no",1311.8941783905,"2021-11-10 12:20:00",1636569123.16084,"standing3",0
3,1,3,"experiment","standing",3,24,"noswitch","incongruent","solid","square","yellow","right","left","no",501.695871353149,"2021-11-10 12:20:00",1636569129.99673,"standing3",0
3,1,3,"experiment","standing",3,25,"switch","incongruent","dashed","triangle","blue","left","left","yes",468.169927597046,"2021-11-10 12:20:00",1636569136.83502,"standing3",1
3,1,3,"experiment","standing",3,26,"noswitch","incongruent","dashed","square","yellow","right","right","yes",458.667039871216,"2021-11-10 12:20:00",1636569138.66731,"standing3",1
3,1,3,"experiment","standing",3,27,"noswitch","incongruent","dashed","square","yellow","right","right","yes",539.002895355225,"2021-11-10 12:20:00",1636569140.55802,"standing3",1
3,1,3,"experiment","standing",3,28,"noswitch","congruent","dashed","square","blue","right","right","yes",549.736976623535,"2021-11-10 12:20:00",1636569142.45263,"standing3",1
3,1,3,"experiment","standing",3,29,"noswitch","congruent","dashed","triangle","yellow","left","left","yes",487.571001052856,"2021-11-10 12:20:00",1636569144.28502,"standing3",1
3,1,3,"experiment","standing",3,30,"switch","congruent","solid","square","blue","right","right","yes",744.595050811768,"2021-11-10 12:20:00",1636569146.41449,"standing3",1
3,1,3,"experiment","standing",3,31,"noswitch","incongruent","solid","square","yellow","left","left","yes",482.324123382568,"2021-11-10 12:20:00",1636569148.24799,"standing3",1
3,1,3,"experiment","standing",3,32,"switch","incongruent","dashed","square","yellow","right","right","yes",565.155982971191,"2021-11-10 12:20:00",1636569150.20171,"standing3",1
3,1,3,"experiment","standing",3,33,"noswitch","incongruent","dashed","square","yellow","right","right","yes",664.943933486938,"2021-11-10 12:20:00",1636569152.21073,"standing3",1
3,1,3,"experiment","standing",3,34,"switch","incongruent","solid","triangle","blue","left","right","no",646.727085113525,"2021-11-10 12:20:00",1636569154.22146,"standing3",0
3,1,3,"experiment","standing",3,35,"noswitch","incongruent","solid","triangle","blue","left","right","no",822.037935256958,"2021-11-10 12:20:00",1636569161.41115,"standing3",0
3,1,3,"experiment","standing",3,36,"noswitch","congruent","solid","triangle","yellow","left","left","yes",706.687927246094,"2021-11-10 12:20:00",1636569168.48102,"standing3",1
3,1,3,"experiment","standing",3,38,"switch","congruent","solid","square","blue","right","right","yes",505.990028381348,"2021-11-10 12:20:00",1636569178.09268,"standing3",1
3,1,3,"experiment","standing",3,39,"switch","congruent","dashed","square","blue","right","right","yes",504.852056503296,"2021-11-10 12:20:00",1636569179.9248,"standing3",1
3,1,3,"experiment","standing",3,40,"noswitch","congruent","dashed","square","blue","right","right","yes",480.787992477417,"2021-11-10 12:20:00",1636569181.75814,"standing3",1
3,1,3,"experiment","standing",3,41,"switch","incongruent","solid","square","yellow","left","left","yes",677.950859069824,"2021-11-10 12:20:00",1636569183.78533,"standing3",1
3,1,3,"experiment","standing",3,42,"noswitch","congruent","solid","triangle","yellow","left","left","yes",532.788038253784,"2021-11-10 12:20:00",1636569185.67698,"standing3",1
3,1,3,"experiment","standing",3,43,"switch","congruent","dashed","square","blue","right","right","yes",659.096002578735,"2021-11-10 12:20:00",1636569187.69168,"standing3",1
3,1,3,"experiment","standing",3,44,"switch","incongruent","solid","triangle","blue","left","right","no",507.398128509521,"2021-11-10 12:20:00",1636569189.52268,"standing3",0
3,1,3,"experiment","standing",3,45,"switch","congruent","dashed","square","blue","right","right","yes",1162.76097297668,"2021-11-10 12:20:00",1636569197.07193,"standing3",1
3,1,3,"experiment","standing",3,46,"noswitch","incongruent","dashed","triangle","blue","left","left","yes",850.7981300354,"2021-11-10 12:20:00",1636569199.25868,"standing3",1
3,1,3,"experiment","standing",3,47,"switch","incongruent","solid","square","yellow","left","left","yes",962.33606338501,"2021-11-10 12:20:00",1636569201.56442,"standing3",1
3,1,3,"experiment","standing",3,48,"noswitch","congruent","solid","square","blue","right","right","yes",520.348072052002,"2021-11-10 12:20:00",1636569203.46023,"standing3",1
3,1,3,"experiment","standing",3,49,"switch","congruent","dashed","triangle","yellow","left","left","yes",449.021100997925,"2021-11-10 12:20:00",1636569205.23604,"standing3",1
3,1,3,"experiment","standing",4,2,"switch","incongruent","dashed","triangle","blue","left","left","yes",447.118043899536,"2021-11-10 12:20:00",1636569230.79132,"standing4",1
3,1,3,"experiment","standing",4,3,"noswitch","congruent","dashed","triangle","yellow","left","left","yes",789.268016815186,"2021-11-10 12:20:00",1636569232.92083,"standing4",1
3,1,3,"experiment","standing",4,4,"noswitch","congruent","dashed","square","blue","right","right","yes",275.681972503662,"2021-11-10 12:20:00",1636569234.5747,"standing4",1
3,1,3,"experiment","standing",4,5,"switch","congruent","solid","triangle","yellow","left","left","yes",465.636014938354,"2021-11-10 12:20:00",1636569236.40895,"standing4",1
3,1,3,"experiment","standing",4,6,"switch","incongruent","dashed","square","yellow","right","right","yes",544.243097305298,"2021-11-10 12:20:00",1636569238.30348,"standing4",1
3,1,3,"experiment","standing",4,7,"noswitch","incongruent","dashed","square","yellow","right","right","yes",571.459054946899,"2021-11-10 12:20:00",1636569240.25616,"standing4",1
3,1,3,"experiment","standing",4,8,"noswitch","congruent","dashed","square","blue","right","right","yes",641.64400100708,"2021-11-10 12:20:00",1636569242.26567,"standing4",1
3,1,3,"experiment","standing",4,9,"noswitch","congruent","dashed","triangle","yellow","right","left","no",679.947853088379,"2021-11-10 12:20:00",1636569244.27446,"standing4",0
3,1,3,"experiment","standing",4,10,"noswitch","incongruent","dashed","triangle","blue","left","left","yes",542.758226394653,"2021-11-10 12:20:00",1636569251.13932,"standing4",1
3,1,3,"experiment","standing",4,11,"noswitch","incongruent","dashed","triangle","blue","left","left","yes",442.909002304077,"2021-11-10 12:20:00",1636569252.91056,"standing4",1
3,1,3,"experiment","standing",4,12,"switch","congruent","solid","triangle","yellow","left","left","yes",602.347135543823,"2021-11-10 12:20:00",1636569254.86151,"standing4",1
3,1,3,"experiment","standing",4,13,"switch","congruent","dashed","triangle","yellow","left","left","yes",555.371999740601,"2021-11-10 12:20:00",1636569256.75352,"standing4",1
3,1,3,"experiment","standing",4,14,"noswitch","congruent","dashed","square","blue","right","right","yes",572.635889053345,"2021-11-10 12:20:00",1636569258.70704,"standing4",1
3,1,3,"experiment","standing",4,15,"noswitch","incongruent","dashed","square","yellow","right","right","yes",687.121152877808,"2021-11-10 12:20:00",1636569260.77592,"standing4",1
3,1,3,"experiment","standing",4,16,"noswitch","incongruent","dashed","square","yellow","right","right","yes",582.865953445435,"2021-11-10 12:20:00",1636569262.72497,"standing4",1
3,1,3,"experiment","standing",4,17,"noswitch","congruent","dashed","triangle","yellow","left","left","yes",635.512113571167,"2021-11-10 12:20:00",1636569264.67506,"standing4",1
3,1,3,"experiment","standing",4,18,"switch","congruent","solid","square","blue","right","right","yes",734.723091125488,"2021-11-10 12:20:00",1636569266.74401,"standing4",1
3,1,3,"experiment","standing",4,19,"noswitch","congruent","solid","triangle","yellow","left","left","yes",411.620855331421,"2021-11-10 12:20:00",1636569268.52031,"standing4",1
3,1,3,"experiment","standing",4,20,"noswitch","congruent","solid","triangle","yellow","left","left","yes",525.518178939819,"2021-11-10 12:20:00",1636569270.41188,"standing4",1
3,1,3,"experiment","standing",4,21,"noswitch","congruent","solid","square","blue","right","right","yes",376.66392326355,"2021-11-10 12:20:00",1636569272.12637,"standing4",1
3,1,3,"experiment","standing",4,22,"switch","congruent","dashed","square","blue","right","right","yes",653.555870056152,"2021-11-10 12:20:00",1636569274.13611,"standing4",1
3,1,3,"experiment","standing",4,23,"switch","congruent","solid","square","blue","right","right","yes",736.86695098877,"2021-11-10 12:20:00",1636569276.20533,"standing4",1
3,1,3,"experiment","standing",4,24,"switch","congruent","dashed","square","blue","right","right","yes",528.823852539062,"2021-11-10 12:20:00",1636569278.09538,"standing4",1
3,1,3,"experiment","standing",4,25,"switch","congruent","solid","square","blue","right","right","yes",704.603910446167,"2021-11-10 12:20:00",1636569280.16406,"standing4",1
3,1,3,"experiment","standing",4,26,"noswitch","congruent","solid","triangle","yellow","right","left","no",1147.43399620056,"2021-11-10 12:20:00",1636569282.64905,"standing4",0
3,1,3,"experiment","standing",4,27,"noswitch","incongruent","solid","square","yellow","right","left","no",678.848028182983,"2021-11-10 12:20:00",1636569289.66317,"standing4",0
3,1,3,"experiment","standing",4,28,"switch","incongruent","dashed","square","yellow","right","right","yes",695.621967315674,"2021-11-10 12:20:00",1636569296.73323,"standing4",1
3,1,3,"experiment","standing",4,29,"switch","incongruent","solid","square","yellow","right","left","no",441.143989562988,"2021-11-10 12:20:00",1636569298.50662,"standing4",0
3,1,3,"experiment","standing",4,30,"noswitch","incongruent","solid","square","yellow","left","left","yes",909.16895866394,"2021-11-10 12:20:00",1636569305.7565,"standing4",1
3,1,3,"experiment","standing",4,31,"switch","incongruent","dashed","triangle","blue","left","left","yes",579.432010650635,"2021-11-10 12:20:00",1636569307.6488,"standing4",1
3,1,3,"experiment","standing",4,32,"switch","congruent","solid","square","blue","right","right","yes",516.013860702515,"2021-11-10 12:20:00",1636569309.54525,"standing4",1
3,1,3,"experiment","standing",4,33,"switch","incongruent","dashed","triangle","blue","left","left","yes",388.47804069519,"2021-11-10 12:20:00",1636569311.25748,"standing4",1
3,1,3,"experiment","standing",4,34,"noswitch","congruent","dashed","triangle","yellow","left","left","yes",495.296001434326,"2021-11-10 12:20:00",1636569313.08924,"standing4",1
3,1,3,"experiment","standing",4,35,"switch","incongruent","solid","triangle","blue","right","right","yes",497.082948684692,"2021-11-10 12:20:00",1636569314.92092,"standing4",1
3,1,3,"experiment","standing",4,36,"switch","congruent","dashed","triangle","yellow","left","left","yes",416.767835617065,"2021-11-10 12:20:00",1636569316.69672,"standing4",1
3,1,3,"experiment","standing",4,37,"switch","incongruent","solid","triangle","blue","right","right","yes",484.143018722534,"2021-11-10 12:20:00",1636569318.53098,"standing4",1
3,1,3,"experiment","standing",4,38,"switch","incongruent","dashed","triangle","blue","left","left","yes",538.30885887146,"2021-11-10 12:20:00",1636569320.42474,"standing4",1
3,1,3,"experiment","standing",4,39,"switch","incongruent","solid","triangle","blue","right","right","yes",664.932012557983,"2021-11-10 12:20:00",1636569322.43924,"standing4",1
3,1,3,"experiment","standing",4,40,"noswitch","incongruent","solid","square","yellow","left","left","yes",810.295104980469,"2021-11-10 12:20:00",1636569324.56979,"standing4",1
3,1,3,"experiment","standing",4,41,"noswitch","incongruent","solid","triangle","blue","right","right","yes",693.295001983643,"2021-11-10 12:20:00",1636569326.64219,"standing4",1
3,1,3,"experiment","standing",4,42,"noswitch","incongruent","solid","triangle","blue","right","right","yes",573.024988174438,"2021-11-10 12:20:00",1636569328.59308,"standing4",1
3,1,3,"experiment","standing",4,43,"noswitch","incongruent","solid","square","yellow","right","left","no",518.303155899048,"2021-11-10 12:20:00",1636569330.48442,"standing4",0
3,1,3,"experiment","standing",4,44,"noswitch","congruent","solid","triangle","yellow","left","left","yes",737.977981567383,"2021-11-10 12:20:00",1636569337.53153,"standing4",1
3,1,3,"experiment","standing",4,45,"noswitch","incongruent","solid","square","yellow","left","left","yes",546.706199645996,"2021-11-10 12:20:00",1636569339.42334,"standing4",1
3,1,3,"experiment","standing",4,46,"switch","congruent","dashed","square","blue","right","right","yes",717.458009719849,"2021-11-10 12:20:00",1636569341.4955,"standing4",1
3,1,3,"experiment","standing",4,47,"switch","incongruent","solid","triangle","blue","right","right","yes",600.263833999634,"2021-11-10 12:20:00",1636569343.44672,"standing4",1
3,1,3,"experiment","standing",4,48,"switch","incongruent","dashed","square","yellow","right","right","yes",608.192920684814,"2021-11-10 12:20:00",1636569345.39682,"standing4",1
3,1,3,"experiment","standing",4,49,"switch","congruent","solid","square","blue","right","right","yes",654.15096282959,"2021-11-10 12:20:00",1636569347.40663,"standing4",1
3,1,3,"experiment","sitting",1,2,"noswitch","congruent","dashed","triangle","yellow","left","left","yes",502.223968505859,"2021-11-10 12:20:00",1636569443.08014,"sitting1",1
3,1,3,"experiment","sitting",1,3,"switch","incongruent","solid","square","yellow","left","left","yes",706.695079803467,"2021-11-10 12:20:00",1636569445.14975,"sitting1",1
3,1,3,"experiment","sitting",1,4,"noswitch","congruent","solid","triangle","yellow","left","left","yes",448.184013366699,"2021-11-10 12:20:00",1636569446.92387,"sitting1",1
3,1,3,"experiment","sitting",1,5,"noswitch","congruent","solid","square","blue","right","right","yes",258.116960525513,"2021-11-10 12:20:00",1636569448.52095,"sitting1",1
3,1,3,"experiment","sitting",1,6,"noswitch","congruent","solid","square","blue","right","right","yes",386.606931686401,"2021-11-10 12:20:00",1636569450.2347,"sitting1",1
3,1,3,"experiment","sitting",1,7,"switch","incongruent","dashed","triangle","blue","left","left","yes",416.460990905762,"2021-11-10 12:20:00",1636569452.01206,"sitting1",1
3,1,3,"experiment","sitting",1,8,"noswitch","incongruent","dashed","triangle","blue","left","left","yes",1005.41400909424,"2021-11-10 12:20:00",1636569454.37812,"sitting1",1
3,1,3,"experiment","sitting",1,9,"switch","incongruent","solid","square","yellow","right","left","no",373.780965805054,"2021-11-10 12:20:00",1636569456.09697,"sitting1",0
3,1,3,"experiment","sitting",1,10,"switch","congruent","dashed","square","blue","right","right","yes",479.429006576538,"2021-11-10 12:20:00",1636569462.92979,"sitting1",1
3,1,3,"experiment","sitting",1,11,"noswitch","congruent","dashed","triangle","yellow","left","left","yes",525.624990463257,"2021-11-10 12:20:00",1636569464.82608,"sitting1",1
3,1,3,"experiment","sitting",1,12,"switch","congruent","solid","square","blue","right","right","yes",453.619003295898,"2021-11-10 12:20:00",1636569466.65807,"sitting1",1
3,1,3,"experiment","sitting",1,13,"switch","incongruent","dashed","square","yellow","right","right","yes",870.089054107666,"2021-11-10 12:20:00",1636569468.9035,"sitting1",1
3,1,3,"experiment","sitting",1,14,"noswitch","incongruent","dashed","triangle","blue","left","left","yes",735.42594909668,"2021-11-10 12:20:00",1636569470.97211,"sitting1",1
3,1,3,"experiment","sitting",1,15,"switch","congruent","solid","triangle","yellow","left","left","yes",946.000099182129,"2021-11-10 12:20:00",1636569473.27856,"sitting1",1
3,1,3,"experiment","sitting",1,16,"switch","incongruent","dashed","square","yellow","right","right","yes",459.478855133057,"2021-11-10 12:20:00",1636569475.11482,"sitting1",1
3,1,3,"experiment","sitting",1,17,"noswitch","congruent","dashed","square","blue","right","right","yes",760.754823684692,"2021-11-10 12:20:00",1636569477.24413,"sitting1",1
